accel_x,accel_y,accel_z,gyro_x,gyro_y,gyro_z,pitch,yaw,roll
-0.24885355039999998,-0.2584248408,10.2029955664,0.017453292519943295,-0.001090830782496456,0.009817477042468103,-0.029039304568685725,0.00019634954084936208,0.028276749683149395
-0.24885355039999998,-0.2584248408,10.2029955664,0.006544984694978736,-0.001090830782496456,0.011999138607461015,-0.029039304568685725,0.00023998277214922032,0.02806294684978009
-0.23928225999999997,-0.2679961312,10.1838529856,0.009817477042468103,-0.001090830782496456,0.008726646259971648,-0.030170095458836314,0.00017453292519943296,0.027102864823181673
-0.24885355039999998,-0.24885355039999998,10.212566856799999,0.009817477042468103,-0.002181661564992912,0.009817477042468103,-0.027960202518717923,0.00019634954084936208,0.02810158320528002
-0.23928225999999997,-0.2584248408,10.1838529856,0.00545415391248228,0.0,0.01090830782496456,-0.029072445875077565,0.0002181661564992912,0.027017996708722507
-0.2584248408,-0.2584248408,10.1742816952,0.009817477042468103,-0.004363323129985824,0.009817477042468103,-0.029185304689199935,0.00019634954084936208,0.029282827807425433
-0.2584248408,-0.24885355039999998,10.2029955664,0.001090830782496456,-0.003272492347489368,0.007635815477475192,-0.028007761395938344,0.00015271630954950385,0.029030680954331242
-0.23928225999999997,-0.24885355039999998,10.222138147199999,0.016362461737446838,0.002181661564992912,0.009817477042468103,-0.02784855178600653,0.00019634954084936208,0.027131732523598545
-0.24885355039999998,-0.24885355039999998,10.1838529856,0.004363323129985824,0.0,0.014180800172453928,-0.027996125269385046,0.0002836160034490786,0.028073294908642757
-0.2584248408,-0.2584248408,10.2029955664,0.01090830782496456,-0.003272492347489368,0.01090830782496456,-0.029082065135359585,0.0002181661564992912,0.02922242771756511
-0.24885355039999998,-0.2679961312,10.1838529856,0.011999138607461015,-0.002181661564992912,0.013089969389957472,-0.030191475742173242,0.00026179938779914946,0.028221623321925664
-0.24885355039999998,-0.2584248408,10.212566856799999,0.015271630954950384,-0.004363323129985824,0.01090830782496456,-0.029076261221756692,0.0002181661564992912,0.028207835660198376
-0.2584248408,-0.2679961312,10.193424275999998,0.011999138607461015,-0.001090830782496456,0.004363323129985824,-0.030141799849422803,8.726646259971648e-05,0.029270313801503557
-0.22971096959999998,-0.2584248408,10.1838529856,0.011999138607461015,-0.001090830782496456,0.006544984694978736,-0.029093826158414497,0.00013089969389957473,0.026070206918693616
-0.24885355039999998,-0.2679961312,10.193424275999998,-0.002181661564992912,-0.001090830782496456,0.009817477042468103,-0.030141799849422803,0.00019634954084936208,0.027917429877436294
-0.2584248408,-0.24885355039999998,10.212566856799999,0.006544984694978736,-0.001090830782496456,0.007635815477475192,-0.027938822235380995,0.00015271630954950385,0.029110422380190345
-0.2584248408,-0.23928225999999997,10.2029955664,0.009817477042468103,-0.001090830782496456,0.007635815477475192,-0.026890647957506456,0.00015271630954950385,0.02920237355102836
-0.2584248408,-0.24885355039999998,10.2029955664,0.011999138607461015,-0.003272492347489368,0.009817477042468103,-0.028007761395938344,0.00019634954084936208,0.029244483787700545
-0.22971096959999998,-0.23928225999999997,10.193424275999998,0.011999138607461015,-0.001090830782496456,0.014180800172453928,-0.02691586805738358,0.0002836160034490786,0.026047154721629093
-0.24885355039999998,-0.2584248408,10.212566856799999,0.014180800172453928,0.001090830782496456,0.013089969389957472,-0.028969359805072037,0.00026179938779914946,0.028186455376861447
-0.24885355039999998,-0.2679961312,10.193424275999998,0.013089969389957472,-0.004363323129985824,0.007635815477475192,-0.030205940699433595,0.00015271630954950385,0.02821675384415332
-0.24885355039999998,-0.24885355039999998,10.1838529856,0.00545415391248228,-0.001090830782496456,0.011999138607461015,-0.028017505552721977,0.00023998277214922032,0.028094675191979685
-0.2584248408,-0.24885355039999998,10.1838529856,0.009817477042468103,0.0,0.009817477042468103,-0.027996125269385046,0.00019634954084936208,0.029256196125346287
-0.2584248408,-0.2679961312,10.222138147199999,0.004363323129985824,0.004363323129985824,0.007635815477475192,-0.029950329313839227,0.00015271630954950385,0.02903918329473874
-0.2584248408,-0.24885355039999998,10.2029955664,0.006544984694978736,-0.006544984694978736,0.003272492347489368,-0.028071902245949135,6.544984694978737e-05,0.029137582371015894
-0.24885355039999998,-0.24885355039999998,10.1838529856,0.013089969389957472,-0.00545415391248228,0.015271630954950384,-0.028103026686069697,0.0003054326190990077,0.0282443371753382
-0.2584248408,-0.22971096959999998,10.1838529856,0.011999138607461015,-0.002181661564992912,0.013089969389957472,-0.02588609829167252,0.00026179938779914946,0.029300239087502317
-0.22971096959999998,-0.2584248408,10.1838529856,0.016362461737446838,-0.004363323129985824,0.011999138607461015,-0.029157967008425288,0.00023998277214922032,0.02615572805204134
-0.24885355039999998,-0.24885355039999998,10.2029955664,0.007635815477475192,-0.002181661564992912,0.008726646259971648,-0.027986381112601412,0.00017453292519943296,0.028084977921089608
-0.24885355039999998,-0.23928225999999997,10.193424275999998,0.011999138607461015,-0.002181661564992912,0.008726646259971648,-0.026937248340720508,0.00017453292519943296,0.028197331418755286
-0.23928225999999997,-0.2679961312,10.193424275999998,0.014180800172453928,-0.003272492347489368,0.013089969389957472,-0.030184560416096663,0.00026179938779914946,0.027163144667046345
-0.23928225999999997,-0.23928225999999997,10.2029955664,0.013089969389957472,0.0,0.008726646259971648,-0.026869267674169525,0.00017453292519943296,0.02711844772840601
-0.24885355039999998,-0.2584248408,10.1838529856,0.007635815477475192,-0.004363323129985824,0.008726646259971648,-0.029157967008425288,0.00017453292519943296,0.02813678129766602
-0.24885355039999998,-0.24885355039999998,10.2029955664,0.008726646259971648,-0.006544984694978736,0.007635815477475192,-0.028071902245949135,0.00015271630954950385,0.028106358204426536
-0.24885355039999998,-0.23928225999999997,10.2029955664,0.006544984694978736,-0.002181661564992912,0.008726646259971648,-0.026912028240843384,0.00017453292519943296,0.028064223910632145
-0.2584248408,-0.2584248408,10.2029955664,0.00545415391248228,-0.003272492347489368,0.011999138607461015,-0.029082065135359585,0.00023998277214922032,0.029115526300880455
-0.2584248408,-0.2584248408,10.2029955664,0.009817477042468103,-0.001090830782496456,0.006544984694978736,-0.029039304568685725,0.00013089969389957473,0.02920104743422818
-0.23928225999999997,-0.2584248408,10.1838529856,0.006544984694978736,-0.001090830782496456,0.01090830782496456,-0.029093826158414497,0.0002181661564992912,0.02703937699205944
-0.22013967919999997,-0.2584248408,10.2029955664,0.01090830782496456,-0.002181661564992912,0.009817477042468103,-0.029060684852022654,0.00019634954084936208,0.02492630180414974
-0.22971096959999998,-0.24885355039999998,10.193424275999998,0.013089969389957472,0.001090830782496456,0.009817477042468103,-0.027948467988897222,0.00019634954084936208,0.02606795522747336
-0.23928225999999997,-0.2679961312,10.2029955664,0.013089969389957472,-0.001090830782496456,0.007635815477475192,-0.03011355729082113,0.00015271630954950385,0.02711657037620016
-0.2679961312,-0.2775674216,10.222138147199999,0.006544984694978736,0.001090830782496456,0.01090830782496456,-0.031086661240052927,0.0002181661564992912,0.03015307037969475
-0.2584248408,-0.2584248408,10.2029955664,0.015271630954950384,-0.001090830782496456,0.009817477042468103,-0.029039304568685725,0.00019634954084936208,0.02930794885091283
-0.2584248408,-0.24885355039999998,10.193424275999998,0.01090830782496456,-0.00545415391248228,0.008726646259971648,-0.028076749688918805,0.00017453292519943296,0.02925031442164682
-0.2584248408,-0.22971096959999998,10.193424275999998,0.004363323129985824,-0.001090830782496456,0.011999138607461015,-0.025840460179209438,0.00023998277214922032,0.029123311511649423
-0.23928225999999997,-0.23928225999999997,10.2029955664,0.013089969389957472,-0.003272492347489368,0.008726646259971648,-0.026933408524180316,0.00017453292519943296,0.02711844772840601
-0.2584248408,-0.2679961312,10.193424275999998,0.009817477042468103,0.0,0.01090830782496456,-0.03012041956608587,0.0002181661564992912,0.029227553234829697
-0.23928225999999997,-0.24885355039999998,10.193424275999998,0.01090830782496456,-0.001090830782496456,0.007635815477475192,-0.027991228555571086,0.00015271630954950385,0.027100282548468604
-0.2584248408,-0.2584248408,10.193424275999998,0.008726646259971648,-0.003272492347489368,0.009817477042468103,-0.02910930034967488,0.00019634954084936208,0.029206876164756927
-0.24885355039999998,-0.22971096959999998,10.2029955664,0.006544984694978736,-0.002181661564992912,0.006544984694978736,-0.02583762812221556,0.00013089969389957473,0.028064825663467897
-0.2584248408,-0.2584248408,10.2029955664,0.008726646259971648,-0.004363323129985824,0.011999138607461015,-0.029103445418696517,0.00023998277214922032,0.029179667150891247
-0.24885355039999998,-0.23928225999999997,10.1838529856,0.009817477042468103,-0.001090830782496456,0.009817477042468103,-0.026941135537330744,0.00019634954084936208,0.02818082613302219
-0.23928225999999997,-0.2679961312,10.1838529856,0.008726646259971648,0.0,0.01090830782496456,-0.030148715175499382,0.0002181661564992912,0.02708148453984474
-0.24885355039999998,-0.2584248408,10.212566856799999,0.004363323129985824,-0.003272492347489368,0.009817477042468103,-0.02905488093841976,0.00019634954084936208,0.027994032826829073
-0.2584248408,-0.2584248408,10.2029955664,0.007635815477475192,0.0,0.008726646259971648,-0.029017924285348794,0.00017453292519943296,0.02915828686755432
-0.22971096959999998,-0.2584248408,10.1838529856,0.014180800172453928,-0.00545415391248228,0.01090830782496456,-0.029179347291762216,0.0002181661564992912,0.02611296748536748
-0.2584248408,-0.2584248408,10.2029955664,0.007635815477475192,-0.001090830782496456,0.008726646259971648,-0.029039304568685725,0.00017453292519943296,0.02915828686755432
-0.24885355039999998,-0.2584248408,10.193424275999998,0.00545415391248228,-0.00545415391248228,0.013089969389957472,-0.02915206091634874,0.00026179938779914946,0.02806776906072603
-0.23928225999999997,-0.2679961312,10.2029955664,0.004363323129985824,-0.003272492347489368,0.007635815477475192,-0.03015631785749499,0.00015271630954950385,0.026945528109504718
-0.23928225999999997,-0.2584248408,10.193424275999998,0.01090830782496456,-0.003272492347489368,0.01090830782496456,-0.02910930034967488,0.0002181661564992912,0.027099655000058842
-0.24885355039999998,-0.24885355039999998,10.212566856799999,0.01090830782496456,0.0,0.007635815477475192,-0.027917441952044063,0.00015271630954950385,0.028122963488616953
-0.24885355039999998,-0.2679961312,10.1838529856,0.006544984694978736,0.001090830782496456,0.006544984694978736,-0.03012733489216245,0.00013089969389957473,0.028114721905241013
-0.24885355039999998,-0.2584248408,10.212566856799999,0.009817477042468103,0.0,0.009817477042468103,-0.02899074008840897,0.00019634954084936208,0.028100934243513724
-0.22971096959999998,-0.2679961312,10.212566856799999,0.009817477042468103,-0.002181661564992912,0.006544984694978736,-0.030106747917346504,0.00013089969389957473,0.02595425742984222
-0.2679961312,-0.2584248408,10.1838529856,0.011999138607461015,-0.001090830782496456,0.008726646259971648,-0.029093826158414497,0.00017453292519943296,0.030374200495656457
-0.23928225999999997,-0.2679961312,10.193424275999998,0.011999138607461015,-0.003272492347489368,0.006544984694978736,-0.030184560416096663,0.00013089969389957473,0.027120384100372482
-0.22013967919999997,-0.24885355039999998,10.193424275999998,0.003272492347489368,-0.002181661564992912,0.011999138607461015,-0.028012608838908014,0.00023998277214922032,0.02480039934166585
-0.22971096959999998,-0.24885355039999998,10.222138147199999,0.009817477042468103,-0.006544984694978736,0.013089969389957472,-0.028019594052701973,0.00026179938779914946,0.025931377876566075
-0.2584248408,-0.22971096959999998,10.193424275999998,0.001090830782496456,-0.002181661564992912,0.009817477042468103,-0.025861840462546366,0.00019634954084936208,0.02905917066163863
-0.24885355039999998,-0.2584248408,10.1838529856,0.007635815477475192,-0.004363323129985824,0.009817477042468103,-0.029157967008425288,0.00019634954084936208,0.02813678129766602
-0.2679961312,-0.24885355039999998,10.2029955664,0.011999138607461015,-0.00545415391248228,0.01090830782496456,-0.028050521962612204,0.0002181661564992912,0.03031841754912925
-0.24885355039999998,-0.22971096959999998,10.1838529856,0.006544984694978736,-0.004363323129985824,0.007635815477475192,-0.025928858858346383,0.00015271630954950385,0.028117290432416227
-0.23928225999999997,-0.2584248408,10.1838529856,0.003272492347489368,-0.004363323129985824,0.007635815477475192,-0.029157967008425288,0.00015271630954950385,0.026975236142048647
-0.23928225999999997,-0.24885355039999998,10.2029955664,0.015271630954950384,0.001090830782496456,0.00545415391248228,-0.02792224026259062,0.0001090830782496456,0.02716060608262288
-0.23928225999999997,-0.2584248408,10.193424275999998,0.00545415391248228,-0.004363323129985824,0.013089969389957472,-0.029130680633011812,0.00026179938779914946,0.026992753583374187
-0.23928225999999997,-0.24885355039999998,10.193424275999998,0.008726646259971648,-0.004363323129985824,0.006544984694978736,-0.028055369405581877,0.00013089969389957473,0.02705752198179474
-0.24885355039999998,-0.24885355039999998,10.2029955664,0.01090830782496456,-0.002181661564992912,0.009817477042468103,-0.027986381112601412,0.00019634954084936208,0.0281491187711004
-0.24885355039999998,-0.2584248408,10.193424275999998,0.008726646259971648,-0.004363323129985824,0.011999138607461015,-0.029130680633011812,0.00023998277214922032,0.028131909910736823
-0.24885355039999998,-0.24885355039999998,10.212566856799999,0.01090830782496456,0.0,0.009817477042468103,-0.027917441952044063,0.00019634954084936208,0.028122963488616953
-0.24885355039999998,-0.2584248408,10.2029955664,0.008726646259971648,-0.001090830782496456,0.01090830782496456,-0.029039304568685725,0.0002181661564992912,0.02810570741645395
-0.2584248408,-0.23928225999999997,10.193424275999998,0.006544984694978736,-0.00545415391248228,0.007635815477475192,-0.0270013891907313,0.00015271630954950385,0.029165445450100747
-0.24885355039999998,-0.24885355039999998,10.222138147199999,0.007635815477475192,-0.001090830782496456,0.006544984694978736,-0.02791269263601732,0.00013089969389957473,0.028032716263490964
-0.23928225999999997,-0.24885355039999998,10.2029955664,0.00545415391248228,-0.001090830782496456,0.006544984694978736,-0.027965000829264484,0.00013089969389957473,0.026968183532590506
-0.2584248408,-0.24885355039999998,10.2029955664,0.01090830782496456,0.001090830782496456,0.009817477042468103,-0.02792224026259062,0.00019634954084936208,0.029223103504363617
-0.22971096959999998,-0.2584248408,10.2029955664,0.009817477042468103,-0.002181661564992912,0.015271630954950384,-0.029060684852022654,0.0003054326190990077,0.025979022859176328
-0.23928225999999997,-0.2679961312,10.222138147199999,0.01090830782496456,0.001090830782496456,0.01090830782496456,-0.03001447016385002,0.0002181661564992912,0.02702356311029094
-0.24885355039999998,-0.2584248408,10.212566856799999,0.00545415391248228,-0.004363323129985824,0.01090830782496456,-0.029076261221756692,0.0002181661564992912,0.028015413110166
-0.24885355039999998,-0.2679961312,10.193424275999998,0.01090830782496456,-0.004363323129985824,0.013089969389957472,-0.030205940699433595,0.00026179938779914946,0.02817399327747946
-0.24885355039999998,-0.24885355039999998,10.2029955664,0.008726646259971648,-0.002181661564992912,0.013089969389957472,-0.027986381112601412,0.00026179938779914946,0.028106358204426536
-0.23928225999999997,-0.2679961312,10.193424275999998,0.00545415391248228,-0.003272492347489368,0.009817477042468103,-0.030184560416096663,0.00019634954084936208,0.0269921024003509
-0.23928225999999997,-0.2584248408,10.1838529856,0.009817477042468103,0.0,0.011999138607461015,-0.029072445875077565,0.00023998277214922032,0.02710351784207023
-0.24885355039999998,-0.23928225999999997,10.1838529856,0.01090830782496456,0.0,0.011999138607461015,-0.026919755253993812,0.00023998277214922032,0.02820220641635912
-0.23928225999999997,-0.23928225999999997,10.212566856799999,0.004363323129985824,-0.001090830782496456,0.008726646259971648,-0.026865475104582173,0.00017453292519943296,0.02692225333524381
-0.24885355039999998,-0.2775674216,10.193424275999998,0.003272492347489368,-0.003272492347489368,0.01090830782496456,-0.03125976743179993,0.0002181661564992912,0.02802362952065596
-0.2584248408,-0.2775674216,10.193424275999998,0.008726646259971648,-0.002181661564992912,0.009817477042468103,-0.031238387148463,0.00019634954084936208,0.029205444220748125
-0.24885355039999998,-0.23928225999999997,10.2029955664,0.007635815477475192,-0.002181661564992912,0.008726646259971648,-0.026912028240843384,0.00017453292519943296,0.028085604193969077
-0.24885355039999998,-0.23928225999999997,10.2029955664,0.014180800172453928,0.001090830782496456,0.008726646259971648,-0.026847887390832593,0.00017453292519943296,0.02821388589399066
-0.23928225999999997,-0.2584248408,10.193424275999998,0.006544984694978736,-0.003272492347489368,0.011999138607461015,-0.02910930034967488,0.00023998277214922032,0.02701413386671112
-0.24885355039999998,-0.23928225999999997,10.212566856799999,0.011999138607461015,-0.001090830782496456,0.013089969389957472,-0.026865475104582173,0.00026179938779914946,0.02814496828733983
-0.2679961312,-0.2679961312,10.1838529856,0.009817477042468103,-0.001090830782496456,0.011999138607461015,-0.030170095458836314,0.00023998277214922032,0.03033070865040845
-0.2584248408,-0.2584248408,10.212566856799999,0.013089969389957472,-0.007635815477475192,0.008726646259971648,-0.029140402071767484,0.00017453292519943296,0.029238030189711342
-0.24885355039999998,-0.2584248408,10.212566856799999,0.007635815477475192,-0.004363323129985824,0.009817477042468103,-0.029076261221756692,0.00019634954084936208,0.028058173676839864
-0.2584248408,-0.2584248408,10.1838529856,0.015271630954950384,-0.00545415391248228,0.014180800172453928,-0.029179347291762216,0.0002836160034490786,0.029362417941244345
-0.2584248408,-0.2679961312,10.193424275999998,0.014180800172453928,-0.006544984694978736,0.006544984694978736,-0.030248701266107455,0.00013089969389957473,0.02931307436817742
-0.24885355039999998,-0.24885355039999998,10.1838529856,0.009817477042468103,-0.004363323129985824,0.013089969389957472,-0.02808164640273277,0.00026179938779914946,0.02818019632532741
-0.24885355039999998,-0.2584248408,10.193424275999998,0.006544984694978736,-0.003272492347489368,0.006544984694978736,-0.02910930034967488,0.00013089969389957473,0.028089149344062963
-0.2584248408,-0.2584248408,10.2029955664,0.014180800172453928,-0.001090830782496456,0.011999138607461015,-0.029039304568685725,0.00023998277214922032,0.029286568567575902
-0.23928225999999997,-0.2584248408,10.2029955664,0.008726646259971648,-0.001090830782496456,0.007635815477475192,-0.029039304568685725,0.00015271630954950385,0.027031698596883928
-0.24885355039999998,-0.2584248408,10.2029955664,0.009817477042468103,-0.001090830782496456,0.009817477042468103,-0.029039304568685725,0.00019634954084936208,0.02812708769979088
-0.2584248408,-0.24885355039999998,10.1838529856,0.014180800172453928,-0.003272492347489368,0.01090830782496456,-0.028060266119395837,0.0002181661564992912,0.02934171725869401
-0.23928225999999997,-0.2584248408,10.2029955664,0.008726646259971648,-0.004363323129985824,0.01090830782496456,-0.029103445418696517,0.0002181661564992912,0.027031698596883928
-0.24885355039999998,-0.2584248408,10.212566856799999,0.01090830782496456,-0.002181661564992912,0.008726646259971648,-0.02903350065508283,0.00017453292519943296,0.028122314526850656
-0.2584248408,-0.2584248408,10.193424275999998,0.006544984694978736,0.0,0.007635815477475192,-0.02904515949966409,0.00015271630954950385,0.029164115598083067
-0.24885355039999998,-0.24885355039999998,10.2029955664,0.008726646259971648,-0.006544984694978736,0.01090830782496456,-0.028071902245949135,0.0002181661564992912,0.028106358204426536
-0.24885355039999998,-0.24885355039999998,10.193424275999998,0.015271630954950384,-0.01090830782496456,0.01090830782496456,-0.02818365110560346,0.0002181661564992912,0.028260844231794
-0.23928225999999997,-0.24885355039999998,10.2029955664,0.01090830782496456,-0.008726646259971648,0.013089969389957472,-0.028114662812622995,0.00026179938779914946,0.02707508494927516
-0.24885355039999998,-0.2679961312,10.193424275999998,0.00545415391248228,0.0,0.01090830782496456,-0.03012041956608587,0.0002181661564992912,0.028067091860794806
-0.24885355039999998,-0.24885355039999998,10.2029955664,0.009817477042468103,-0.001090830782496456,0.01090830782496456,-0.027965000829264484,0.0002181661564992912,0.028127738487763468
-0.24885355039999998,-0.2775674216,10.212566856799999,0.008726646259971648,-0.003272492347489368,0.009817477042468103,-0.031201322709713725,0.00019634954084936208,0.028078182718174208
-0.24885355039999998,-0.24885355039999998,10.193424275999998,0.00545415391248228,-0.003272492347489368,0.007635815477475192,-0.028033989122244946,0.00015271630954950385,0.028068421681761626
-0.2679961312,-0.2584248408,10.2029955664,0.01090830782496456,-0.002181661564992912,0.009817477042468103,-0.029060684852022654,0.00019634954084936208,0.030296336483728536
-0.2679961312,-0.22971096959999998,10.1838529856,0.01090830782496456,-0.002181661564992912,0.007635815477475192,-0.02588609829167252,0.00015271630954950385,0.030354854776393127
-0.2584248408,-0.2584248408,10.2029955664,0.007635815477475192,-0.003272492347489368,0.007635815477475192,-0.029082065135359585,0.00015271630954950385,0.02915828686755432
-0.23928225999999997,-0.23928225999999997,10.2029955664,0.013089969389957472,0.001090830782496456,0.01090830782496456,-0.026847887390832593,0.0002181661564992912,0.02711844772840601
-0.24885355039999998,-0.2584248408,10.193424275999998,0.003272492347489368,-0.003272492347489368,0.016362461737446838,-0.02910930034967488,0.00032724923474893676,0.02802500849405217
-0.23928225999999997,-0.2584248408,10.193424275999998,0.009817477042468103,-0.00545415391248228,0.009817477042468103,-0.02915206091634874,0.00019634954084936208,0.02707827471672191
-0.2584248408,-0.2679961312,10.212566856799999,0.007635815477475192,0.0,0.008726646259971648,-0.030063987350672644,0.00017453292519943296,0.029130429502395538
-0.24885355039999998,-0.2584248408,10.193424275999998,0.006544984694978736,-0.003272492347489368,0.01090830782496456,-0.02910930034967488,0.0002181661564992912,0.028089149344062963
-0.2584248408,-0.24885355039999998,10.2029955664,0.004363323129985824,-0.002181661564992912,0.009817477042468103,-0.027986381112601412,0.00019634954084936208,0.029094821804342034
-0.2584248408,-0.2584248408,10.2029955664,0.016362461737446838,0.0,0.009817477042468103,-0.029017924285348794,0.00019634954084936208,0.029329329134249762
-0.23928225999999997,-0.2584248408,10.212566856799999,0.009817477042468103,-0.002181661564992912,0.007635815477475192,-0.02903350065508283,0.00015271630954950385,0.027027930199876503
-0.2584248408,-0.24885355039999998,10.193424275999998,0.006544984694978736,-0.001090830782496456,0.01090830782496456,-0.027991228555571086,0.0002181661564992912,0.029164793288299098
-0.24885355039999998,-0.24885355039999998,10.193424275999998,0.01090830782496456,0.001090830782496456,0.015271630954950384,-0.027948467988897222,0.0003054326190990077,0.02817532309844628
-0.23928225999999997,-0.2584248408,10.1838529856,0.007635815477475192,-0.006544984694978736,0.007635815477475192,-0.029200727575099148,0.00015271630954950385,0.02706075727539637
-0.23928225999999997,-0.2584248408,10.1838529856,0.01090830782496456,0.0,0.01090830782496456,-0.029072445875077565,0.0002181661564992912,0.027124898125407162
-0.24885355039999998,-0.2679961312,10.2029955664,0.00545415391248228,-0.003272492347489368,0.01090830782496456,-0.03015631785749499,0.0002181661564992912,0.02804089126852119
-0.2584248408,-0.2584248408,10.212566856799999,0.009817477042468103,0.002181661564992912,0.009817477042468103,-0.02894797952173511,0.00019634954084936208,0.02917388933970055
-0.24885355039999998,-0.2679961312,10.193424275999998,0.01090830782496456,-0.003272492347489368,0.008726646259971648,-0.030184560416096663,0.00017453292519943296,0.02817399327747946
-0.2584248408,-0.2584248408,10.193424275999998,0.008726646259971648,-0.002181661564992912,0.01090830782496456,-0.02908792006633795,0.0002181661564992912,0.029206876164756927
-0.23928225999999997,-0.23928225999999997,10.2029955664,0.008726646259971648,0.002181661564992912,0.007635815477475192,-0.026826507107495665,0.00015271630954950385,0.027032926595058286
-0.2584248408,-0.2775674216,10.2029955664,0.014180800172453928,0.0,0.01090830782496456,-0.0311663768279224,0.0002181661564992912,0.029285140645153505
-0.23928225999999997,-0.2679961312,10.1838529856,0.007635815477475192,-0.001090830782496456,0.011999138607461015,-0.030170095458836314,0.00023998277214922032,0.027060104256507813
-0.24885355039999998,-0.2584248408,10.1838529856,0.011999138607461015,0.0,0.006544984694978736,-0.029072445875077565,0.00013089969389957473,0.02822230243101374
-0.23928225999999997,-0.2584248408,10.193424275999998,0.014180800172453928,-0.001090830782496456,0.008726646259971648,-0.02906653978300102,0.00017453292519943296,0.027163795850069634
-0.22971096959999998,-0.2584248408,10.193424275999998,0.015271630954950384,-0.002181661564992912,0.007635815477475192,-0.02908792006633795,0.00015271630954950385,0.026110113321676672
-0.2584248408,-0.2584248408,10.212566856799999,0.008726646259971648,-0.003272492347489368,0.009817477042468103,-0.02905488093841976,0.00019634954084936208,0.02915250905636362
-0.23928225999999997,-0.23928225999999997,10.193424275999998,0.006544984694978736,-0.004363323129985824,0.013089969389957472,-0.02698000890739437,0.00026179938779914946,0.027015365323947608
-0.2584248408,-0.2679961312,10.2029955664,0.00545415391248228,-0.004363323129985824,0.00545415391248228,-0.030177698140831922,0.0001090830782496456,0.02911482506262628
-0.23928225999999997,-0.2584248408,10.1838529856,0.006544984694978736,-0.004363323129985824,0.01090830782496456,-0.029157967008425288,0.0002181661564992912,0.02703937699205944
-0.24885355039999998,-0.2584248408,10.193424275999998,0.008726646259971648,-0.001090830782496456,0.011999138607461015,-0.02906653978300102,0.00023998277214922032,0.028131909910736823
-0.2584248408,-0.23928225999999997,10.193424275999998,0.004363323129985824,-0.002181661564992912,0.009817477042468103,-0.026937248340720508,0.00019634954084936208,0.029122684883426887
-0.24885355039999998,-0.24885355039999998,10.193424275999998,0.008726646259971648,-0.002181661564992912,0.006544984694978736,-0.028012608838908014,0.00013089969389957473,0.028132562531772418
-0.2584248408,-0.24885355039999998,10.193424275999998,0.01090830782496456,0.001090830782496456,0.007635815477475192,-0.027948467988897222,0.00015271630954950385,0.02925031442164682
-0.2584248408,-0.2679961312,10.193424275999998,0.009817477042468103,-0.001090830782496456,0.008726646259971648,-0.030141799849422803,0.00017453292519943296,0.029227553234829697
-0.22971096959999998,-0.2584248408,10.2029955664,0.007635815477475192,-0.002181661564992912,0.006544984694978736,-0.029060684852022654,0.00013089969389957473,0.02593626229250247
-0.24885355039999998,-0.2584248408,10.212566856799999,0.009817477042468103,-0.001090830782496456,0.013089969389957472,-0.0290121203717459,0.00026179938779914946,0.028100934243513724
-0.2584248408,-0.2584248408,10.1838529856,0.008726646259971648,-0.001090830782496456,0.014180800172453928,-0.029093826158414497,0.0002836160034490786,0.02923413624122276
-0.2584248408,-0.2584248408,10.2029955664,0.01090830782496456,-0.001090830782496456,0.006544984694978736,-0.029039304568685725,0.00013089969389957473,0.02922242771756511
-0.24885355039999998,-0.24885355039999998,10.2029955664,0.011999138607461015,-0.002181661564992912,0.008726646259971648,-0.027986381112601412,0.00017453292519943296,0.028170499054437328
-0.24885355039999998,-0.24885355039999998,10.222138147199999,0.014180800172453928,-0.002181661564992912,0.013089969389957472,-0.02793407291935425,0.00026179938779914946,0.028160997963512548
-0.24885355039999998,-0.23928225999999997,10.193424275999998,0.007635815477475192,-0.002181661564992912,0.01090830782496456,-0.026937248340720508,0.0002181661564992912,0.028111810285407567
-0.23928225999999997,-0.24885355039999998,10.193424275999998,0.01090830782496456,-0.004363323129985824,0.009817477042468103,-0.028055369405581877,0.00019634954084936208,0.027100282548468604
-0.24885355039999998,-0.24885355039999998,10.193424275999998,0.009817477042468103,-0.002181661564992912,0.008726646259971648,-0.028012608838908014,0.00017453292519943296,0.02815394281510935
-0.24885355039999998,-0.24885355039999998,10.2029955664,0.004363323129985824,-0.002181661564992912,0.01090830782496456,-0.027986381112601412,0.0002181661564992912,0.028020837071078816
-0.23928225999999997,-0.24885355039999998,10.2029955664,0.008726646259971648,-0.00545415391248228,0.009817477042468103,-0.028050521962612204,0.00019634954084936208,0.027032324382601298
-0.23928225999999997,-0.24885355039999998,10.1838529856,0.002181661564992912,-0.002181661564992912,0.008726646259971648,-0.028038885836058906,0.00017453292519943296,0.026954485176438572
-0.22971096959999998,-0.23928225999999997,10.2029955664,0.01090830782496456,-0.002181661564992912,0.00545415391248228,-0.026912028240843384,0.0001090830782496456,0.026001582071538222
-0.2584248408,-0.24885355039999998,10.193424275999998,0.007635815477475192,-0.001090830782496456,0.01090830782496456,-0.027991228555571086,0.0002181661564992912,0.02918617357163603
-0.24885355039999998,-0.24885355039999998,10.193424275999998,0.006544984694978736,0.0,0.014180800172453928,-0.027969848272234154,0.0002836160034490786,0.028089801965098558
-0.2584248408,-0.2584248408,10.193424275999998,0.011999138607461015,-0.003272492347489368,0.013089969389957472,-0.02910930034967488,0.00026179938779914946,0.029271017014767718
-0.24885355039999998,-0.2679961312,10.2029955664,0.009817477042468103,-0.004363323129985824,0.011999138607461015,-0.030177698140831922,0.00023998277214922032,0.028126412401868913
-0.23928225999999997,-0.2679961312,10.193424275999998,0.014180800172453928,0.0,0.013089969389957472,-0.03012041956608587,0.00026179938779914946,0.027163144667046345
-0.24885355039999998,-0.23928225999999997,10.193424275999998,0.014180800172453928,0.0,0.009817477042468103,-0.026894487774046648,0.00019634954084936208,0.02824009198542915
-0.23928225999999997,-0.24885355039999998,10.193424275999998,0.003272492347489368,0.002181661564992912,0.008726646259971648,-0.027927087705560294,0.00017453292519943296,0.02695062056511009
-0.24885355039999998,-0.2584248408,10.212566856799999,0.011999138607461015,-0.001090830782496456,0.01090830782496456,-0.0290121203717459,0.0002181661564992912,0.028143694810187584
-0.23928225999999997,-0.2584248408,10.2029955664,0.003272492347489368,-0.001090830782496456,0.007635815477475192,-0.029039304568685725,0.00015271630954950385,0.026924797180199276
-0.2584248408,-0.2584248408,10.1838529856,0.008726646259971648,-0.002181661564992912,0.008726646259971648,-0.029115206441751425,0.00017453292519943296,0.02923413624122276
-0.2679961312,-0.24885355039999998,10.193424275999998,0.008726646259971648,-0.003272492347489368,0.01090830782496456,-0.028033989122244946,0.0002181661564992912,0.03028249406283022
-0.24885355039999998,-0.24885355039999998,10.2029955664,0.003272492347489368,-0.004363323129985824,0.014180800172453928,-0.028029141679275275,0.0002836160034490786,0.027999456787741885
-0.23928225999999997,-0.23928225999999997,10.212566856799999,0.006544984694978736,0.0,0.01090830782496456,-0.02684409482124524,0.0002181661564992912,0.02696501390191767
-0.22971096959999998,-0.22971096959999998,10.2029955664,0.016362461737446838,0.001090830782496456,0.006544984694978736,-0.025773487272204767,0.00013089969389957473,0.026109039001209575
-0.24885355039999998,-0.22971096959999998,10.2029955664,0.00545415391248228,0.002181661564992912,0.01090830782496456,-0.02575210698886784,0.0002181661564992912,0.028043445380130965
-0.24885355039999998,-0.23928225999999997,10.164710404799997,0.01090830782496456,-0.002181661564992912,0.007635815477475192,-0.027013193455745668,0.00015271630954950385,0.028254865101504045
-0.22971096959999998,-0.24885355039999998,10.1742816952,0.008726646259971648,-0.001090830782496456,0.006544984694978736,-0.02804383195965872,0.00013089969389957473,0.02603095192099631
-0.24885355039999998,-0.2584248408,10.193424275999998,0.009817477042468103,0.0,0.014180800172453928,-0.02904515949966409,0.0002836160034490786,0.028153290194073755
-0.23928225999999997,-0.28713871199999996,10.193424275999998,0.009817477042468103,-0.002181661564992912,0.008726646259971648,-0.03231353922429754,0.00017453292519943296,0.027076250284621933
-0.24885355039999998,-0.2584248408,10.212566856799999,0.008726646259971648,-0.002181661564992912,0.008726646259971648,-0.02903350065508283,0.00017453292519943296,0.028079553960176792
-0.2584248408,-0.2584248408,10.193424275999998,0.008726646259971648,-0.004363323129985824,0.01090830782496456,-0.029130680633011812,0.0002181661564992912,0.029206876164756927
-0.24885355039999998,-0.24885355039999998,10.1838529856,0.016362461737446838,-0.001090830782496456,0.007635815477475192,-0.028017505552721977,0.00015271630954950385,0.028308478025348992
-0.24885355039999998,-0.24885355039999998,10.1838529856,0.011999138607461015,0.001090830782496456,0.006544984694978736,-0.027974744986048114,0.00013089969389957473,0.02822295689200127
-0.22971096959999998,-0.24885355039999998,10.1838529856,0.008726646259971648,-0.001090830782496456,0.00545415391248228,-0.028017505552721977,0.0001090830782496456,0.026006670239820045
-0.23928225999999997,-0.24885355039999998,10.1742816952,0.01090830782496456,0.0,0.011999138607461015,-0.028022451676321787,0.00023998277214922032,0.027150819766491193
-0.24885355039999998,-0.2775674216,10.2029955664,0.013089969389957472,0.001090830782496456,0.01090830782496456,-0.031144996544585468,0.0002181661564992912,0.028189853449345145
-0.2679961312,-0.2584248408,10.2029955664,0.008726646259971648,-0.002181661564992912,0.007635815477475192,-0.029060684852022654,0.00015271630954950385,0.030253575917054673
-0.2584248408,-0.23928225999999997,10.1838529856,0.01090830782496456,-0.006544984694978736,0.009817477042468103,-0.027048036954015395,0.00019634954084936208,0.02927823040916914
-0.2584248408,-0.23928225999999997,10.193424275999998,0.009817477042468103,-0.00545415391248228,0.007635815477475192,-0.0270013891907313,0.00015271630954950385,0.029229586300111538
-0.2584248408,-0.2584248408,10.212566856799999,0.006544984694978736,-0.006544984694978736,0.01090830782496456,-0.029119021788430552,0.0002181661564992912,0.02910974848968976
-0.24885355039999998,-0.24885355039999998,10.1838529856,0.006544984694978736,-0.00545415391248228,0.011999138607461015,-0.028103026686069697,0.00023998277214922032,0.028116055475316617
-0.24885355039999998,-0.24885355039999998,10.1838529856,0.009817477042468103,0.0,0.009817477042468103,-0.027996125269385046,0.00019634954084936208,0.02818019632532741
-0.23928225999999997,-0.2584248408,10.212566856799999,0.011999138607461015,-0.004363323129985824,0.008726646259971648,-0.029076261221756692,0.00017453292519943296,0.027070690766550363
-0.23928225999999997,-0.24885355039999998,10.212566856799999,0.009817477042468103,-0.002181661564992912,0.009817477042468103,-0.027960202518717923,0.00019634954084936208,0.027028554229495218
-0.24885355039999998,-0.2584248408,10.1838529856,0.003272492347489368,-0.002181661564992912,0.006544984694978736,-0.029115206441751425,0.00013089969389957473,0.028051260164318297
-0.23928225999999997,-0.24885355039999998,10.2029955664,0.009817477042468103,0.0,0.01090830782496456,-0.027943620545927552,0.0002181661564992912,0.02705370466593823
-0.24885355039999998,-0.2584248408,10.2029955664,0.008726646259971648,-0.003272492347489368,0.007635815477475192,-0.029082065135359585,0.00015271630954950385,0.02810570741645395
-0.2679961312,-0.2775674216,10.1838529856,0.006544984694978736,-0.003272492347489368,0.011999138607461015,-0.031289072125632075,0.00023998277214922032,0.03026580998604139
-0.2584248408,-0.24885355039999998,10.2029955664,0.007635815477475192,0.002181661564992912,0.009817477042468103,-0.027900859979253692,0.00019634954084936208,0.029158962654352825
-0.23928225999999997,-0.2584248408,10.2029955664,0.009817477042468103,-0.00545415391248228,0.011999138607461015,-0.029124825702033445,0.00023998277214922032,0.02705307888022086
-0.23928225999999997,-0.2679961312,10.2029955664,0.01090830782496456,-0.00545415391248228,0.007635815477475192,-0.03019907842416885,0.00015271630954950385,0.0270738098095263
-0.24885355039999998,-0.24885355039999998,10.212566856799999,0.009817477042468103,0.0,0.01090830782496456,-0.027917441952044063,0.0002181661564992912,0.02810158320528002
-0.23928225999999997,-0.2679961312,10.193424275999998,0.006544984694978736,-0.00545415391248228,0.009817477042468103,-0.030227320982770523,0.00019634954084936208,0.02701348268368783
-0.2679961312,-0.24885355039999998,10.193424275999998,0.008726646259971648,-0.001090830782496456,0.011999138607461015,-0.027991228555571086,0.00023998277214922032,0.03028249406283022
-0.23928225999999997,-0.2775674216,10.212566856799999,0.006544984694978736,-0.002181661564992912,0.01090830782496456,-0.031179942426376794,0.0002181661564992912,0.026962470788949304
-0.24885355039999998,-0.24885355039999998,10.2029955664,0.008726646259971648,-0.001090830782496456,0.011999138607461015,-0.027965000829264484,0.00023998277214922032,0.028106358204426536
-0.23928225999999997,-0.24885355039999998,10.193424275999998,0.01090830782496456,0.001090830782496456,0.01090830782496456,-0.027948467988897222,0.0002181661564992912,0.027100282548468604
-0.23928225999999997,-0.24885355039999998,10.222138147199999,0.008726646259971648,-0.001090830782496456,0.01090830782496456,-0.02791269263601732,0.0002181661564992912,0.02698207054024003
-0.24885355039999998,-0.24885355039999998,10.193424275999998,0.011999138607461015,-0.002181661564992912,0.01090830782496456,-0.028012608838908014,0.0002181661564992912,0.02819670338178321
-0.23928225999999997,-0.23928225999999997,10.1838529856,0.009817477042468103,-0.002181661564992912,0.008726646259971648,-0.026962515820667672,0.00017453292519943296,0.027104752771369374
-0.23928225999999997,-0.2584248408,10.193424275999998,0.011999138607461015,-0.00545415391248228,0.008726646259971648,-0.02915206091634874,0.00017453292519943296,0.02712103528339577
-0.23928225999999997,-0.2584248408,10.193424275999998,0.009817477042468103,-0.003272492347489368,0.007635815477475192,-0.02910930034967488,0.00015271630954950385,0.02707827471672191
-0.23928225999999997,-0.2775674216,10.1838529856,0.01090830782496456,-0.006544984694978736,0.007635815477475192,-0.03135321297564286,0.00015271630954950385,0.027123568391648617
-0.23928225999999997,-0.2679961312,10.193424275999998,0.011999138607461015,-0.004363323129985824,0.01090830782496456,-0.030205940699433595,0.0002181661564992912,0.027120384100372482
-0.24885355039999998,-0.2584248408,10.212566856799999,0.009817477042468103,-0.002181661564992912,0.007635815477475192,-0.02903350065508283,0.00015271630954950385,0.028100934243513724
-0.24885355039999998,-0.22971096959999998,10.193424275999998,0.01090830782496456,0.0,0.007635815477475192,-0.025819079895872506,0.00015271630954950385,0.028176554583353074
-0.24885355039999998,-0.2679961312,10.212566856799999,0.009817477042468103,-0.00545415391248228,0.009817477042468103,-0.030170888767357296,0.00019634954084936208,0.028100260840486804
-0.2584248408,-0.2679961312,10.212566856799999,0.007635815477475192,-0.002181661564992912,0.011999138607461015,-0.030106747917346504,0.00023998277214922032,0.029130429502395538
-0.24885355039999998,-0.2679961312,10.1742816952,0.006544984694978736,-0.004363323129985824,0.01090830782496456,-0.030262585118654338,0.0002181661564992912,0.028141020973647773
-0.2584248408,-0.23928225999999997,10.2029955664,0.011999138607461015,-0.002181661564992912,0.008726646259971648,-0.026912028240843384,0.00017453292519943296,0.02924513411770222
-0.2584248408,-0.2679961312,10.222138147199999,0.014180800172453928,-0.002181661564992912,0.009817477042468103,-0.03007861101386081,0.00019634954084936208,0.029231605844771115
-0.24885355039999998,-0.2679961312,10.1838529856,0.01090830782496456,-0.004363323129985824,0.008726646259971648,-0.030234236308847105,0.00017453292519943296,0.028200243038588736
-0.22971096959999998,-0.2584248408,10.193424275999998,0.007635815477475192,-0.002181661564992912,0.011999138607461015,-0.02908792006633795,0.00023998277214922032,0.02596045133831816
-0.24885355039999998,-0.2679961312,10.212566856799999,0.017453292519943295,-0.003272492347489368,0.007635815477475192,-0.030128128200683436,0.00015271630954950385,0.02824992282384532
-0.24885355039999998,-0.24885355039999998,10.2029955664,0.01090830782496456,-0.006544984694978736,0.009817477042468103,-0.028071902245949135,0.00019634954084936208,0.0281491187711004
-0.22971096959999998,-0.24885355039999998,10.222138147199999,0.007635815477475192,-0.001090830782496456,0.009817477042468103,-0.02791269263601732,0.00019634954084936208,0.025888617309892215
-0.23928225999999997,-0.22971096959999998,10.222138147199999,0.01090830782496456,-0.003272492347489368,0.01090830782496456,-0.025810719680511584,0.0002181661564992912,0.0270260053382923
-0.24885355039999998,-0.24885355039999998,10.193424275999998,0.008726646259971648,-0.004363323129985824,0.01090830782496456,-0.028055369405581877,0.0002181661564992912,0.028132562531772418
-0.24885355039999998,-0.2775674216,10.1838529856,0.01090830782496456,-0.001090830782496456,0.007635815477475192,-0.031246311558958215,0.00015271630954950385,0.028199539286787183
-0.2584248408,-0.2679961312,10.193424275999998,0.008726646259971648,-0.001090830782496456,0.007635815477475192,-0.030141799849422803,0.00015271630954950385,0.029206172951492766
-0.24885355039999998,-0.2584248408,10.193424275999998,0.013089969389957472,-0.001090830782496456,0.008726646259971648,-0.02906653978300102,0.00017453292519943296,0.028217431044084546
-0.22971096959999998,-0.2584248408,10.212566856799999,0.007635815477475192,-0.002181661564992912,0.007635815477475192,-0.02903350065508283,0.00015271630954950385,0.02591211852049754
-0.24885355039999998,-0.2584248408,10.2029955664,0.008726646259971648,-0.007635815477475192,0.008726646259971648,-0.02916758626870731,0.00017453292519943296,0.02810570741645395
-0.24885355039999998,-0.2584248408,10.193424275999998,0.01090830782496456,-0.002181661564992912,0.01090830782496456,-0.02908792006633795,0.0002181661564992912,0.028174670477410686
-0.24885355039999998,-0.23928225999999997,10.193424275999998,0.011999138607461015,-0.004363323129985824,0.007635815477475192,-0.02698000890739437,0.00015271630954950385,0.028197331418755286
-0.24885355039999998,-0.24885355039999998,10.212566856799999,0.007635815477475192,-0.00545415391248228,0.01090830782496456,-0.028024343368728714,0.0002181661564992912,0.02805882263860616
-0.24885355039999998,-0.2679961312,10.1838529856,0.008726646259971648,-0.002181661564992912,0.007635815477475192,-0.030191475742173242,0.00015271630954950385,0.028157482471914873
-0.2584248408,-0.2584248408,10.222138147199999,0.00545415391248228,0.0,0.007635815477475192,-0.028963606765659587,0.00015271630954950385,0.029061260888436247
-0.2584248408,-0.23928225999999997,10.1838529856,0.009817477042468103,-0.002181661564992912,0.011999138607461015,-0.026962515820667672,0.00023998277214922032,0.029256850125832207
-0.24885355039999998,-0.2775674216,10.193424275999998,0.011999138607461015,-0.002181661564992912,0.011999138607461015,-0.031238387148463,0.00023998277214922032,0.028194671787351404
-0.2584248408,-0.2679961312,10.2029955664,0.014180800172453928,-0.006544984694978736,0.01090830782496456,-0.030220458707505782,0.0002181661564992912,0.029285867329321726
-0.24885355039999998,-0.2679961312,10.2029955664,0.01090830782496456,-0.002181661564992912,0.011999138607461015,-0.03013493757415806,0.00023998277214922032,0.028147792685205845
-0.24885355039999998,-0.2679961312,10.193424275999998,0.013089969389957472,0.0,0.009817477042468103,-0.03012041956608587,0.00019634954084936208,0.02821675384415332
-0.24885355039999998,-0.2679961312,10.222138147199999,0.016362461737446838,-0.007635815477475192,0.008726646259971648,-0.030185512430545465,0.00017453292519943296,0.028202439872588875
-0.24885355039999998,-0.2679961312,10.1838529856,0.015271630954950384,-0.001090830782496456,0.01090830782496456,-0.030170095458836314,0.0002181661564992912,0.028285764171936456
-0.2584248408,-0.24885355039999998,10.2029955664,0.008726646259971648,-0.001090830782496456,0.009817477042468103,-0.027965000829264484,0.00019634954084936208,0.029180342937689754
-0.2584248408,-0.2584248408,10.2029955664,0.009817477042468103,-0.003272492347489368,0.008726646259971648,-0.029082065135359585,0.00017453292519943296,0.02920104743422818
-0.24885355039999998,-0.22971096959999998,10.2029955664,0.009817477042468103,-0.002181661564992912,0.01090830782496456,-0.02583762812221556,0.0002181661564992912,0.02812896651347869
-0.24885355039999998,-0.2679961312,10.2029955664,0.013089969389957472,0.001090830782496456,0.008726646259971648,-0.030070796724147267,0.00017453292519943296,0.028190553251879705
-0.23928225999999997,-0.2679961312,10.164710404799997,0.007635815477475192,-0.00545415391248228,0.009817477042468103,-0.030312367562336816,0.00019634954084936208,0.02711072921452087
-0.23928225999999997,-0.2584248408,10.1838529856,0.009817477042468103,0.001090830782496456,0.009817477042468103,-0.029051065591740633,0.00019634954084936208,0.02710351784207023
-0.2584248408,-0.24885355039999998,10.193424275999998,0.004363323129985824,-0.003272492347489368,0.009817477042468103,-0.028033989122244946,0.00019634954084936208,0.029122032721625238
-0.24885355039999998,-0.24885355039999998,10.212566856799999,0.015271630954950384,0.001090830782496456,0.007635815477475192,-0.02789606166870713,0.00015271630954950385,0.028208484621964673
-0.24885355039999998,-0.2584248408,10.2029955664,0.007635815477475192,-0.002181661564992912,0.009817477042468103,-0.029060684852022654,0.00019634954084936208,0.02808432713311702
-0.24885355039999998,-0.2584248408,10.193424275999998,0.006544984694978736,-0.004363323129985824,0.01090830782496456,-0.029130680633011812,0.0002181661564992912,0.028089149344062963
-0.24885355039999998,-0.2679961312,10.1838529856,0.008726646259971648,-0.002181661564992912,0.011999138607461015,-0.030191475742173242,0.00023998277214922032,0.028157482471914873
-0.24885355039999998,-0.24885355039999998,10.193424275999998,0.006544984694978736,-0.003272492347489368,0.01090830782496456,-0.028033989122244946,0.0002181661564992912,0.028089801965098558
-0.23928225999999997,-0.2584248408,10.1742816952,0.003272492347489368,0.0,0.015271630954950384,-0.029099783555852212,0.0003054326190990077,0.027000526689432886
-0.24885355039999998,-0.2584248408,10.1838529856,0.008726646259971648,-0.002181661564992912,0.007635815477475192,-0.029115206441751425,0.00015271630954950385,0.028158161581002948
-0.24885355039999998,-0.24885355039999998,10.193424275999998,0.014180800172453928,-0.00545415391248228,0.007635815477475192,-0.028076749688918805,0.00015271630954950385,0.028239463948457073
-0.23928225999999997,-0.23928225999999997,10.2029955664,0.006544984694978736,-0.001090830782496456,0.006544984694978736,-0.026890647957506456,0.00013089969389957473,0.026990166028384426
-0.24885355039999998,-0.24885355039999998,10.1838529856,0.009817477042468103,-0.001090830782496456,0.004363323129985824,-0.028017505552721977,8.726646259971648e-05,0.02818019632532741
-0.22971096959999998,-0.2584248408,10.2029955664,0.00545415391248228,-0.002181661564992912,0.008726646259971648,-0.029060684852022654,0.00017453292519943296,0.025893501725828605
-0.2584248408,-0.24885355039999998,10.193424275999998,0.011999138607461015,0.002181661564992912,0.009817477042468103,-0.027927087705560294,0.00019634954084936208,0.02927169470498375
-0.2584248408,-0.23928225999999997,10.1838529856,0.013089969389957472,-0.001090830782496456,0.007635815477475192,-0.026941135537330744,0.00015271630954950385,0.029320990975843
-0.24885355039999998,-0.2775674216,10.193424275999998,0.008726646259971648,0.001090830782496456,0.009817477042468103,-0.03117424629845221,0.00019634954084936208,0.028130530937340612
-0.23928225999999997,-0.2584248408,10.222138147199999,0.015271630954950384,-0.002181661564992912,0.01090830782496456,-0.029006367332333447,0.0002181661564992912,0.027109729960178602
-0.24885355039999998,-0.2584248408,10.212566856799999,0.009817477042468103,-0.003272492347489368,0.011999138607461015,-0.02905488093841976,0.00023998277214922032,0.028100934243513724
-0.24885355039999998,-0.2679961312,10.2029955664,0.011999138607461015,-0.001090830782496456,0.011999138607461015,-0.03011355729082113,0.00023998277214922032,0.028169172968542773
-0.2584248408,-0.24885355039999998,10.193424275999998,0.011999138607461015,-0.002181661564992912,0.007635815477475192,-0.028012608838908014,0.00015271630954950385,0.02927169470498375
-0.24885355039999998,-0.23928225999999997,10.2029955664,0.011999138607461015,-0.004363323129985824,0.01090830782496456,-0.026954788807517248,0.0002181661564992912,0.028171125327316797
-0.23928225999999997,-0.23928225999999997,10.2029955664,0.001090830782496456,-0.002181661564992912,0.009817477042468103,-0.026912028240843384,0.00019634954084936208,0.026883264611699775
-0.2584248408,-0.2679961312,10.193424275999998,0.009817477042468103,0.0,0.014180800172453928,-0.03012041956608587,0.0002836160034490786,0.029227553234829697
-0.24885355039999998,-0.24885355039999998,10.2029955664,0.015271630954950384,-0.003272492347489368,0.008726646259971648,-0.028007761395938344,0.00017453292519943296,0.02823463990444812
-0.2584248408,-0.2584248408,10.2029955664,0.006544984694978736,-0.00545415391248228,0.007635815477475192,-0.029124825702033445,0.00015271630954950385,0.029136906584217387
-0.2584248408,-0.23928225999999997,10.212566856799999,0.00545415391248228,-0.004363323129985824,0.009817477042468103,-0.026929615954592964,0.00019634954084936208,0.029089690601907227
-0.2584248408,-0.2584248408,10.193424275999998,0.009817477042468103,-0.002181661564992912,0.01090830782496456,-0.02908792006633795,0.0002181661564992912,0.029228256448093858
-0.24885355039999998,-0.23928225999999997,10.193424275999998,0.011999138607461015,-0.004363323129985824,0.007635815477475192,-0.02698000890739437,0.00015271630954950385,0.028197331418755286
-0.24885355039999998,-0.2584248408,10.2029955664,0.011999138607461015,-0.001090830782496456,0.01090830782496456,-0.029039304568685725,0.0002181661564992912,0.02816984826646474
-0.23928225999999997,-0.23928225999999997,10.193424275999998,0.008726646259971648,-0.002181661564992912,0.011999138607461015,-0.026937248340720508,0.00023998277214922032,0.027058125890621468
-0.2584248408,-0.24885355039999998,10.193424275999998,0.006544984694978736,-0.001090830782496456,0.01090830782496456,-0.027991228555571086,0.0002181661564992912,0.029164793288299098
-0.2584248408,-0.23928225999999997,10.2029955664,0.00545415391248228,-0.001090830782496456,0.01090830782496456,-0.026890647957506456,0.0002181661564992912,0.029116852417680635
-0.23928225999999997,-0.23928225999999997,10.1838529856,0.006544984694978736,-0.001090830782496456,0.011999138607461015,-0.026941135537330744,0.00023998277214922032,0.027040611921358582
-0.24885355039999998,-0.2584248408,10.193424275999998,0.011999138607461015,0.001090830782496456,0.011999138607461015,-0.029023779216327157,0.00023998277214922032,0.028196050760747614
-0.24885355039999998,-0.24885355039999998,10.212566856799999,0.009817477042468103,-0.003272492347489368,0.007635815477475192,-0.027981582802054854,0.00015271630954950385,0.02810158320528002
-0.2584248408,-0.23928225999999997,10.193424275999998,0.006544984694978736,0.0,0.008726646259971648,-0.026894487774046648,0.00017453292519943296,0.029165445450100747
-0.22971096959999998,-0.24885355039999998,10.1838529856,0.011999138607461015,-0.002181661564992912,0.008726646259971648,-0.028038885836058906,0.00017453292519943296,0.026070811089830837
-0.23928225999999997,-0.2584248408,10.212566856799999,0.007635815477475192,-0.00545415391248228,0.008726646259971648,-0.02909764150509362,0.00017453292519943296,0.026985169633202643
-0.2584248408,-0.23928225999999997,10.193424275999998,0.01090830782496456,-0.001090830782496456,0.007635815477475192,-0.02691586805738358,0.00015271630954950385,0.02925096658344847
-0.2584248408,-0.24885355039999998,10.2029955664,0.020725784867432664,-0.002181661564992912,0.013089969389957472,-0.027986381112601412,0.00026179938779914946,0.029415526054395992
-0.24885355039999998,-0.2584248408,10.212566856799999,0.006544984694978736,-0.003272492347489368,0.009817477042468103,-0.02905488093841976,0.00019634954084936208,0.028036793393502932
-0.24885355039999998,-0.2679961312,10.212566856799999,0.011999138607461015,0.0,0.009817477042468103,-0.030063987350672644,0.00019634954084936208,0.028143021407160664
-0.23928225999999997,-0.2584248408,10.193424275999998,0.008726646259971648,-0.002181661564992912,0.01090830782496456,-0.02908792006633795,0.0002181661564992912,0.02705689443338498
-0.2679961312,-0.24885355039999998,10.1838529856,0.01090830782496456,-0.004363323129985824,0.007635815477475192,-0.02808164640273277,0.00015271630954950385,0.030353524949311015
-0.24885355039999998,-0.24885355039999998,10.222138147199999,0.008726646259971648,-0.001090830782496456,0.009817477042468103,-0.02791269263601732,0.00019634954084936208,0.028054096546827893
-0.22971096959999998,-0.22971096959999998,10.212566856799999,0.009817477042468103,0.0,0.007635815477475192,-0.025770700576195342,0.00015271630954950385,0.025956608661586958
-0.2584248408,-0.23928225999999997,10.1742816952,0.006544984694978736,-0.001090830782496456,0.015271630954950384,-0.026966450530965635,0.0003054326190990077,0.029220024322045346
-0.2584248408,-0.2584248408,10.2029955664,0.01090830782496456,-0.006544984694978736,0.009817477042468103,-0.029146205985370377,0.00019634954084936208,0.02922242771756511
-0.24885355039999998,-0.2584248408,10.2029955664,0.01090830782496456,0.0,0.009817477042468103,-0.029017924285348794,0.00019634954084936208,0.02814846798312781
-0.2584248408,-0.2584248408,10.193424275999998,0.008726646259971648,-0.001090830782496456,0.013089969389957472,-0.02906653978300102,0.00026179938779914946,0.029206876164756927
-0.24885355039999998,-0.2679961312,10.193424275999998,0.013089969389957472,-0.004363323129985824,0.009817477042468103,-0.030205940699433595,0.00019634954084936208,0.02821675384415332
-0.24885355039999998,-0.23928225999999997,10.1838529856,0.011999138607461015,0.001090830782496456,0.009817477042468103,-0.02689837497065688,0.00019634954084936208,0.02822358669969605
-0.24885355039999998,-0.24885355039999998,10.222138147199999,0.013089969389957472,-0.001090830782496456,0.006544984694978736,-0.02791269263601732,0.00013089969389957473,0.028139617680175616
-0.24885355039999998,-0.2584248408,10.1838529856,0.013089969389957472,-0.002181661564992912,0.009817477042468103,-0.029115206441751425,0.00019634954084936208,0.02824368271435067
-0.24885355039999998,-0.2584248408,10.193424275999998,0.01090830782496456,-0.00545415391248228,0.008726646259971648,-0.02915206091634874,0.00017453292519943296,0.028174670477410686
-0.2584248408,-0.24885355039999998,10.193424275999998,0.008726646259971648,-0.001090830782496456,0.009817477042468103,-0.027991228555571086,0.00019634954084936208,0.029207553854972958
-0.23928225999999997,-0.2584248408,10.193424275999998,0.008726646259971648,0.003272492347489368,0.007635815477475192,-0.028981018649653297,0.00015271630954950385,0.02705689443338498
-0.24885355039999998,-0.2584248408,10.212566856799999,0.00545415391248228,0.0,0.007635815477475192,-0.02899074008840897,0.00015271630954950385,0.028015413110166
-0.22971096959999998,-0.23928225999999997,10.193424275999998,0.007635815477475192,-0.003272492347489368,0.011999138607461015,-0.02695862862405744,0.00023998277214922032,0.025961633588281373
-0.23928225999999997,-0.2679961312,10.193424275999998,0.011999138607461015,-0.003272492347489368,0.008726646259971648,-0.030184560416096663,0.00017453292519943296,0.027120384100372482
-0.24885355039999998,-0.23928225999999997,10.1838529856,0.013089969389957472,0.002181661564992912,0.013089969389957472,-0.026876994687319952,0.00026179938779914946,0.02824496698303298
-0.24885355039999998,-0.2679961312,10.1838529856,0.007635815477475192,-0.001090830782496456,0.00545415391248228,-0.030170095458836314,0.0001090830782496456,0.028136102188577945
-0.2679961312,-0.23928225999999997,10.193424275999998,0.013089969389957472,0.003272492347489368,0.006544984694978736,-0.026830346924035856,0.00013089969389957473,0.030368691479366407
-0.24885355039999998,-0.2584248408,10.212566856799999,0.011999138607461015,-0.001090830782496456,0.007635815477475192,-0.0290121203717459,0.00015271630954950385,0.028143694810187584
-0.2584248408,-0.2584248408,10.212566856799999,0.013089969389957472,-0.001090830782496456,0.004363323129985824,-0.0290121203717459,8.726646259971648e-05,0.029238030189711342
-0.24885355039999998,-0.2584248408,10.193424275999998,0.006544984694978736,0.001090830782496456,0.011999138607461015,-0.029023779216327157,0.00023998277214922032,0.028089149344062963
-0.24885355039999998,-0.2584248408,10.2029955664,0.014180800172453928,0.001090830782496456,0.01090830782496456,-0.028996544002011862,0.0002181661564992912,0.028212608833138603
-0.23928225999999997,-0.24885355039999998,10.193424275999998,0.007635815477475192,0.001090830782496456,0.011999138607461015,-0.027948467988897222,0.00023998277214922032,0.027036141698457812
-0.24885355039999998,-0.2679961312,10.1838529856,0.006544984694978736,-0.003272492347489368,0.009817477042468103,-0.030212856025510174,0.00019634954084936208,0.028114721905241013
-0.24885355039999998,-0.24885355039999998,10.2029955664,0.009817477042468103,0.0,0.009817477042468103,-0.027943620545927552,0.00019634954084936208,0.028127738487763468
-0.24885355039999998,-0.2679961312,10.1838529856,0.013089969389957472,-0.001090830782496456,0.011999138607461015,-0.030170095458836314,0.00023998277214922032,0.028243003605262596
-0.2584248408,-0.24885355039999998,10.212566856799999,0.006544984694978736,0.002181661564992912,0.006544984694978736,-0.027874681385370203,0.00013089969389957473,0.029110422380190345
-0.2679961312,-0.24885355039999998,10.2029955664,0.006544984694978736,-0.001090830782496456,0.01090830782496456,-0.027965000829264484,0.0002181661564992912,0.030211516132444598
-0.22971096959999998,-0.2584248408,10.193424275999998,0.002181661564992912,0.0,0.006544984694978736,-0.02904515949966409,0.00013089969389957473,0.025853549921633506
-0.23928225999999997,-0.2584248408,10.2029955664,0.002181661564992912,-0.003272492347489368,0.01090830782496456,-0.029082065135359585,0.0002181661564992912,0.026903416896862344
-0.2584248408,-0.24885355039999998,10.2029955664,0.01090830782496456,-0.003272492347489368,0.014180800172453928,-0.028007761395938344,0.0002836160034490786,0.029223103504363617
-0.2584248408,-0.23928225999999997,10.2029955664,0.007635815477475192,-0.001090830782496456,0.008726646259971648,-0.026890647957506456,0.00017453292519943296,0.0291596129843545
-0.2584248408,-0.2584248408,10.2029955664,0.00545415391248228,-0.002181661564992912,0.013089969389957472,-0.029060684852022654,0.00026179938779914946,0.029115526300880455
-0.2584248408,-0.2584248408,10.2029955664,0.008726646259971648,-0.002181661564992912,0.00545415391248228,-0.029060684852022654,0.0001090830782496456,0.029179667150891247
-0.22971096959999998,-0.2679961312,10.1838529856,0.007635815477475192,-0.001090830782496456,0.00545415391248228,-0.030170095458836314,0.0001090830782496456,0.025984058860111032
-0.24885355039999998,-0.2679961312,10.2029955664,0.011999138607461015,0.002181661564992912,0.004363323129985824,-0.03004941644081034,8.726646259971648e-05,0.028169172968542773
-0.2584248408,-0.22971096959999998,10.1838529856,0.00545415391248228,-0.001090830782496456,0.01090830782496456,-0.02586471800833559,0.0002181661564992912,0.029171957387480733
-0.24885355039999998,-0.2584248408,10.1838529856,0.007635815477475192,-0.002181661564992912,0.009817477042468103,-0.029115206441751425,0.00019634954084936208,0.02813678129766602
-0.24885355039999998,-0.2584248408,10.193424275999998,0.01090830782496456,-0.003272492347489368,0.007635815477475192,-0.02910930034967488,0.00015271630954950385,0.028174670477410686
-0.2584248408,-0.2584248408,10.212566856799999,0.00545415391248228,-0.004363323129985824,0.011999138607461015,-0.029076261221756692,0.00023998277214922032,0.029088368206352827
-0.23928225999999997,-0.24885355039999998,10.2029955664,0.007635815477475192,-0.006544984694978736,0.008726646259971648,-0.028071902245949135,0.00017453292519943296,0.02701094409926437
-0.2584248408,-0.2584248408,10.2029955664,0.00545415391248228,-0.002181661564992912,0.011999138607461015,-0.029060684852022654,0.00023998277214922032,0.029115526300880455
-0.22971096959999998,-0.23928225999999997,10.193424275999998,0.009817477042468103,-0.004363323129985824,0.011999138607461015,-0.02698000890739437,0.00023998277214922032,0.026004394154955233
-0.24885355039999998,-0.2679961312,10.2029955664,0.011999138607461015,-0.001090830782496456,0.008726646259971648,-0.03011355729082113,0.00017453292519943296,0.028169172968542773
-0.24885355039999998,-0.24885355039999998,10.2029955664,0.006544984694978736,-0.002181661564992912,0.01090830782496456,-0.027986381112601412,0.0002181661564992912,0.028063597637752676
-0.2584248408,-0.2584248408,10.193424275999998,0.008726646259971648,-0.004363323129985824,0.011999138607461015,-0.029130680633011812,0.00023998277214922032,0.029206876164756927
-0.24885355039999998,-0.24885355039999998,10.193424275999998,0.013089969389957472,-0.002181661564992912,0.014180800172453928,-0.028012608838908014,0.0002836160034490786,0.02821808366512014
-0.2584248408,-0.24885355039999998,10.193424275999998,0.008726646259971648,-0.004363323129985824,0.007635815477475192,-0.028055369405581877,0.00015271630954950385,0.029207553854972958
-0.22971096959999998,-0.2584248408,10.1838529856,0.015271630954950384,0.001090830782496456,0.009817477042468103,-0.029051065591740633,0.00019634954084936208,0.026134347768704408
-0.24885355039999998,-0.24885355039999998,10.193424275999998,0.008726646259971648,-0.002181661564992912,0.009817477042468103,-0.028012608838908014,0.00019634954084936208,0.028132562531772418
-0.23928225999999997,-0.2584248408,10.2029955664,0.01090830782496456,0.001090830782496456,0.009817477042468103,-0.028996544002011862,0.00019634954084936208,0.02707445916355779
-0.2584248408,-0.24885355039999998,10.193424275999998,0.009817477042468103,0.001090830782496456,0.007635815477475192,-0.027948467988897222,0.00015271630954950385,0.02922893413830989
-0.24885355039999998,-0.22971096959999998,10.222138147199999,0.008726646259971648,0.0,0.01090830782496456,-0.025746578830500792,0.0002181661564992912,0.02805531769292092
-0.2584248408,-0.23928225999999997,10.193424275999998,0.00545415391248228,-0.003272492347489368,0.006544984694978736,-0.02695862862405744,0.00013089969389957473,0.029144065166763815
-0.24885355039999998,-0.24885355039999998,10.1838529856,0.014180800172453928,-0.003272492347489368,0.009817477042468103,-0.028060266119395837,0.00019634954084936208,0.028265717458675132
-0.22971096959999998,-0.2584248408,10.193424275999998,0.007635815477475192,-0.004363323129985824,0.011999138607461015,-0.029130680633011812,0.00023998277214922032,0.02596045133831816
-0.24885355039999998,-0.24885355039999998,10.1838529856,0.008726646259971648,-0.002181661564992912,0.008726646259971648,-0.028038885836058906,0.00017453292519943296,0.028158816041990477
-0.2584248408,-0.2584248408,10.193424275999998,0.007635815477475192,-0.004363323129985824,0.01090830782496456,-0.029130680633011812,0.0002181661564992912,0.02918549588142
-0.2584248408,-0.2679961312,10.212566856799999,0.009817477042468103,0.002181661564992912,0.00545415391248228,-0.030021226783998784,0.0001090830782496456,0.029173190069069398
-0.23928225999999997,-0.2584248408,10.193424275999998,0.007635815477475192,0.003272492347489368,0.009817477042468103,-0.028981018649653297,0.00019634954084936208,0.02703551415004805
-0.24885355039999998,-0.2584248408,10.2029955664,0.011999138607461015,-0.001090830782496456,0.008726646259971648,-0.029039304568685725,0.00017453292519943296,0.02816984826646474
-0.24885355039999998,-0.2584248408,10.2029955664,0.008726646259971648,0.001090830782496456,0.009817477042468103,-0.028996544002011862,0.00019634954084936208,0.02810570741645395
-0.22971096959999998,-0.2584248408,10.212566856799999,0.007635815477475192,-0.00545415391248228,0.007635815477475192,-0.02909764150509362,0.00015271630954950385,0.02591211852049754
-0.23928225999999997,-0.2584248408,10.222138147199999,0.00545415391248228,-0.002181661564992912,0.008726646259971648,-0.029006367332333447,0.00017453292519943296,0.026917307410146227
-0.2584248408,-0.24885355039999998,10.2029955664,0.007635815477475192,0.002181661564992912,0.009817477042468103,-0.027900859979253692,0.00019634954084936208,0.029158962654352825
-0.23928225999999997,-0.2679961312,10.1838529856,0.01090830782496456,-0.002181661564992912,0.007635815477475192,-0.030191475742173242,0.00015271630954950385,0.027124245106518605
-0.22971096959999998,-0.23928225999999997,10.1838529856,0.01090830782496456,0.0,0.01090830782496456,-0.026919755253993812,0.0002181661564992912,0.026050012218739982
-0.24885355039999998,-0.2584248408,10.193424275999998,0.008726646259971648,-0.002181661564992912,0.008726646259971648,-0.02908792006633795,0.00017453292519943296,0.028131909910736823
-0.2584248408,-0.2584248408,10.2029955664,0.018544123302439753,-0.001090830782496456,0.008726646259971648,-0.029039304568685725,0.00017453292519943296,0.029372089700923622
-0.23928225999999997,-0.2584248408,10.2029955664,0.006544984694978736,-0.001090830782496456,0.007635815477475192,-0.029039304568685725,0.00015271630954950385,0.026988938030210068
-0.24885355039999998,-0.2679961312,10.2029955664,0.011999138607461015,0.002181661564992912,0.01090830782496456,-0.03004941644081034,0.0002181661564992912,0.028169172968542773
-0.2584248408,-0.24885355039999998,10.1838529856,0.00545415391248228,-0.003272492347489368,0.009817477042468103,-0.028060266119395837,0.00019634954084936208,0.029170674991998564
-0.23928225999999997,-0.24885355039999998,10.2029955664,0.004363323129985824,-0.006544984694978736,0.01090830782496456,-0.028071902245949135,0.0002181661564992912,0.026946803249253578
-0.24885355039999998,-0.24885355039999998,10.2029955664,0.00545415391248228,-0.001090830782496456,0.009817477042468103,-0.027965000829264484,0.00019634954084936208,0.028042217354415745
-0.2679961312,-0.2679961312,10.2029955664,0.008726646259971648,0.0,0.011999138607461015,-0.0300921770074842,0.00023998277214922032,0.03025284874216286
-0.24885355039999998,-0.2584248408,10.1838529856,0.009817477042468103,0.0,0.009817477042468103,-0.029072445875077565,0.00019634954084936208,0.02817954186433988
-0.23928225999999997,-0.2584248408,10.2317094376,0.007635815477475192,-0.003272492347489368,0.007635815477475192,-0.02900066502446162,0.00015271630954950385,0.02693501321269789
-0.2584248408,-0.24885355039999998,10.1742816952,0.01090830782496456,-0.003272492347489368,0.009817477042468103,-0.02808659252633258,0.00019634954084936208,0.029304889609306203
-0.2584248408,-0.2679961312,10.2029955664,0.009817477042468103,0.0,0.008726646259971648,-0.0300921770074842,0.00017453292519943296,0.029200346195974003
-0.2679961312,-0.23928225999999997,10.2029955664,0.014180800172453928,-0.003272492347489368,0.008726646259971648,-0.026933408524180316,0.00017453292519943296,0.03036185249950033
-0.24885355039999998,-0.24885355039999998,10.212566856799999,0.00545415391248228,0.0,0.008726646259971648,-0.027917441952044063,0.00017453292519943296,0.028016062071932298
-0.24885355039999998,-0.23928225999999997,10.212566856799999,0.007635815477475192,0.002181661564992912,0.007635815477475192,-0.02680133425457138,0.00015271630954950385,0.02805944715399211
-0.23928225999999997,-0.2584248408,10.212566856799999,0.007635815477475192,-0.002181661564992912,0.013089969389957472,-0.02903350065508283,0.00026179938779914946,0.026985169633202643
-0.2584248408,-0.2679961312,10.193424275999998,0.007635815477475192,-0.004363323129985824,0.008726646259971648,-0.030205940699433595,0.00017453292519943296,0.029184792668155837
-0.2584248408,-0.2679961312,10.193424275999998,0.003272492347489368,-0.004363323129985824,0.006544984694978736,-0.030205940699433595,0.00013089969389957473,0.029099271534808114
-0.23928225999999997,-0.2584248408,10.212566856799999,0.016362461737446838,-0.004363323129985824,0.008726646259971648,-0.029076261221756692,0.00017453292519943296,0.027156211899898086
-0.2584248408,-0.24885355039999998,10.193424275999998,0.01090830782496456,0.0,0.006544984694978736,-0.027969848272234154,0.00013089969389957473,0.02925031442164682
-0.2584248408,-0.24885355039999998,10.1838529856,0.008726646259971648,-0.003272492347489368,0.008726646259971648,-0.028060266119395837,0.00017453292519943296,0.029234815842009355
-0.24885355039999998,-0.24885355039999998,10.212566856799999,0.011999138607461015,-0.001090830782496456,0.009817477042468103,-0.027938822235380995,0.00019634954084936208,0.02814434377195388
-0.23928225999999997,-0.2679961312,10.2029955664,0.01090830782496456,0.0,0.01090830782496456,-0.0300921770074842,0.0002181661564992912,0.0270738098095263
-0.24885355039999998,-0.2584248408,10.193424275999998,0.011999138607461015,-0.002181661564992912,0.008726646259971648,-0.02908792006633795,0.00017453292519943296,0.028196050760747614
-0.23928225999999997,-0.2584248408,10.2029955664,0.008726646259971648,-0.002181661564992912,0.01090830782496456,-0.029060684852022654,0.0002181661564992912,0.027031698596883928
-0.2584248408,-0.23928225999999997,10.193424275999998,0.011999138607461015,-0.001090830782496456,0.007635815477475192,-0.02691586805738358,0.00015271630954950385,0.029272346866785398
-0.24885355039999998,-0.24885355039999998,10.222138147199999,0.009817477042468103,-0.002181661564992912,0.01090830782496456,-0.02793407291935425,0.0002181661564992912,0.028075476830164824
-0.24885355039999998,-0.2584248408,10.193424275999998,0.008726646259971648,0.002181661564992912,0.006544984694978736,-0.02900239893299023,0.00013089969389957473,0.028131909910736823
-0.24885355039999998,-0.23928225999999997,10.2029955664,0.00545415391248228,-0.00545415391248228,0.006544984694978736,-0.026976169090854176,0.00013089969389957473,0.028042843627295214
-0.24885355039999998,-0.2584248408,10.2029955664,0.006544984694978736,-0.004363323129985824,0.011999138607461015,-0.029103445418696517,0.00023998277214922032,0.02806294684978009
-0.24885355039999998,-0.23928225999999997,10.193424275999998,0.01090830782496456,0.0,0.009817477042468103,-0.026894487774046648,0.00019634954084936208,0.028175951135418358
-0.2584248408,-0.23928225999999997,10.1838529856,0.00545415391248228,0.001090830782496456,0.01090830782496456,-0.02689837497065688,0.0002181661564992912,0.029171328992484483
-0.2584248408,-0.24885355039999998,10.212566856799999,0.0,0.001090830782496456,0.007635815477475192,-0.02789606166870713,0.00015271630954950385,0.02898214068016876
-0.23928225999999997,-0.2584248408,10.212566856799999,0.008726646259971648,-0.004363323129985824,0.007635815477475192,-0.029076261221756692,0.00015271630954950385,0.02700654991653957
-0.24885355039999998,-0.2679961312,10.193424275999998,0.013089969389957472,0.001090830782496456,0.006544984694978736,-0.03009903928274894,0.00013089969389957473,0.02821675384415332
-0.2584248408,-0.2584248408,10.193424275999998,0.008726646259971648,-0.001090830782496456,0.008726646259971648,-0.02906653978300102,0.00017453292519943296,0.029206876164756927
-0.24885355039999998,-0.2679961312,10.2029955664,0.006544984694978736,-0.001090830782496456,0.009817477042468103,-0.03011355729082113,0.00019634954084936208,0.02806227155185812
-0.2584248408,-0.24885355039999998,10.2029955664,0.007635815477475192,-0.001090830782496456,0.007635815477475192,-0.027965000829264484,0.00015271630954950385,0.029158962654352825
-0.2584248408,-0.2584248408,10.2029955664,0.01090830782496456,-0.002181661564992912,0.011999138607461015,-0.029060684852022654,0.00023998277214922032,0.02922242771756511
-0.24885355039999998,-0.2584248408,10.212566856799999,0.011999138607461015,-0.001090830782496456,0.011999138607461015,-0.0290121203717459,0.00023998277214922032,0.028143694810187584
-0.2584248408,-0.2584248408,10.1838529856,0.007635815477475192,-0.004363323129985824,0.01090830782496456,-0.029157967008425288,0.0002181661564992912,0.029212755957885833
-0.23928225999999997,-0.2584248408,10.212566856799999,0.006544984694978736,-0.003272492347489368,0.007635815477475192,-0.02905488093841976,0.00015271630954950385,0.02696378934986571
-0.2584248408,-0.2584248408,10.2029955664,0.008726646259971648,-0.004363323129985824,0.009817477042468103,-0.029103445418696517,0.00019634954084936208,0.029179667150891247
-0.23928225999999997,-0.2679961312,10.2029955664,0.008726646259971648,-0.003272492347489368,0.01090830782496456,-0.03015631785749499,0.0002181661564992912,0.027031049242852438
-0.24885355039999998,-0.2584248408,10.193424275999998,0.011999138607461015,0.002181661564992912,0.01090830782496456,-0.02900239893299023,0.0002181661564992912,0.028196050760747614
-0.24885355039999998,-0.2679961312,10.222138147199999,0.011999138607461015,-0.002181661564992912,0.01090830782496456,-0.03007861101386081,0.0002181661564992912,0.028116918739241152
-0.24885355039999998,-0.24885355039999998,10.2029955664,0.01090830782496456,-0.004363323129985824,0.013089969389957472,-0.028029141679275275,0.00026179938779914946,0.0281491187711004
-0.24885355039999998,-0.24885355039999998,10.212566856799999,0.003272492347489368,-0.004363323129985824,0.008726646259971648,-0.028002963085391786,0.00017453292519943296,0.02797330150525844
-0.2584248408,-0.24885355039999998,10.193424275999998,0.006544984694978736,-0.008726646259971648,0.008726646259971648,-0.028140890538929597,0.00017453292519943296,0.029164793288299098
-0.24885355039999998,-0.2584248408,10.212566856799999,0.006544984694978736,0.0,0.009817477042468103,-0.02899074008840897,0.00019634954084936208,0.028036793393502932
-0.24885355039999998,-0.22971096959999998,10.1838529856,0.007635815477475192,-0.00545415391248228,0.00545415391248228,-0.02595023914168331,0.0001090830782496456,0.02813867071575316
-0.2584248408,-0.24885355039999998,10.2029955664,0.014180800172453928,-0.003272492347489368,0.008726646259971648,-0.028007761395938344,0.00017453292519943296,0.02928724435437441
-0.24885355039999998,-0.2584248408,10.193424275999998,0.003272492347489368,-0.00545415391248228,0.011999138607461015,-0.02915206091634874,0.00023998277214922032,0.02802500849405217
-0.24885355039999998,-0.2584248408,10.2029955664,0.00545415391248228,-0.002181661564992912,0.01090830782496456,-0.029060684852022654,0.0002181661564992912,0.028041566566443157
-0.24885355039999998,-0.24885355039999998,10.193424275999998,0.01090830782496456,-0.004363323129985824,0.008726646259971648,-0.028055369405581877,0.00017453292519943296,0.02817532309844628
-0.22013967919999997,-0.2679961312,10.193424275999998,0.008726646259971648,-0.001090830782496456,0.013089969389957472,-0.030141799849422803,0.00026179938779914946,0.02490612422597005
-0.24885355039999998,-0.2679961312,10.193424275999998,0.013089969389957472,-0.001090830782496456,0.00545415391248228,-0.030141799849422803,0.0001090830782496456,0.02821675384415332
-0.2584248408,-0.2584248408,10.212566856799999,0.006544984694978736,0.0,0.014180800172453928,-0.02899074008840897,0.0002836160034490786,0.02910974848968976
-0.24885355039999998,-0.24885355039999998,10.222138147199999,0.011999138607461015,-0.004363323129985824,0.006544984694978736,-0.027976833486028113,0.00013089969389957473,0.028118237396838684
-0.24885355039999998,-0.2679961312,10.1838529856,0.011999138607461015,0.0,0.008726646259971648,-0.030148715175499382,0.00017453292519943296,0.028221623321925664
-0.2584248408,-0.2584248408,10.1838529856,0.011999138607461015,0.003272492347489368,0.007635815477475192,-0.029008305025066773,0.00015271630954950385,0.029298277091233553
-0.23928225999999997,-0.2584248408,10.2029955664,0.00545415391248228,-0.001090830782496456,0.007635815477475192,-0.029039304568685725,0.00015271630954950385,0.026967557746873136
-0.24885355039999998,-0.24885355039999998,10.212566856799999,0.008726646259971648,-0.002181661564992912,0.009817477042468103,-0.027960202518717923,0.00019634954084936208,0.02808020292194309
-0.23928225999999997,-0.24885355039999998,10.193424275999998,0.009817477042468103,0.0,0.008726646259971648,-0.027969848272234154,0.00017453292519943296,0.027078902265131672
-0.2679961312,-0.24885355039999998,10.1838529856,0.007635815477475192,-0.001090830782496456,0.008726646259971648,-0.028017505552721977,0.00017453292519943296,0.030289384099300223
-0.2584248408,-0.2584248408,10.1838529856,0.008726646259971648,-0.001090830782496456,0.00545415391248228,-0.029093826158414497,0.0001090830782496456,0.02923413624122276
-0.2584248408,-0.24885355039999998,10.193424275999998,0.008726646259971648,-0.002181661564992912,0.007635815477475192,-0.028012608838908014,0.00015271630954950385,0.029207553854972958
-0.24885355039999998,-0.2584248408,10.212566856799999,0.01090830782496456,-0.002181661564992912,0.008726646259971648,-0.02903350065508283,0.00017453292519943296,0.028122314526850656
-0.24885355039999998,-0.24885355039999998,10.193424275999998,0.01090830782496456,0.002181661564992912,0.008726646259971648,-0.027927087705560294,0.00017453292519943296,0.02817532309844628
-0.24885355039999998,-0.2679961312,10.155139114399999,0.014180800172453928,-0.00545415391248228,0.008726646259971648,-0.03034082322393066,0.00017453292519943296,0.028343429572162418
-0.23928225999999997,-0.2584248408,10.212566856799999,0.014180800172453928,-0.004363323129985824,0.01090830782496456,-0.029076261221756692,0.0002181661564992912,0.027113451333224226
-0.2584248408,-0.23928225999999997,10.212566856799999,0.009817477042468103,-0.003272492347489368,0.014180800172453928,-0.026908235671256032,0.0002836160034490786,0.02917521173525495
-0.24885355039999998,-0.23928225999999997,10.193424275999998,0.011999138607461015,-0.001090830782496456,0.015271630954950384,-0.02691586805738358,0.0003054326190990077,0.028197331418755286
-0.24885355039999998,-0.24885355039999998,10.193424275999998,0.009817477042468103,-0.003272492347489368,0.008726646259971648,-0.028033989122244946,0.00017453292519943296,0.02815394281510935
-0.23928225999999997,-0.23928225999999997,10.193424275999998,0.011999138607461015,-0.004363323129985824,0.01090830782496456,-0.02698000890739437,0.0002181661564992912,0.02712226674063226
-0.2584248408,-0.2775674216,10.193424275999998,0.008726646259971648,-0.00545415391248228,0.006544984694978736,-0.03130252799847379,0.00013089969389957473,0.029205444220748125
-0.24885355039999998,-0.24885355039999998,10.2029955664,0.006544984694978736,-0.003272492347489368,0.009817477042468103,-0.028007761395938344,0.00019634954084936208,0.028063597637752676
-0.2584248408,-0.2584248408,10.2029955664,0.004363323129985824,0.001090830782496456,0.014180800172453928,-0.028996544002011862,0.0002836160034490786,0.029094146017543527
-0.2584248408,-0.24885355039999998,10.193424275999998,0.01090830782496456,-0.003272492347489368,0.009817477042468103,-0.028033989122244946,0.00019634954084936208,0.02925031442164682
-0.23928225999999997,-0.22971096959999998,10.193424275999998,0.015271630954950384,-0.004363323129985824,0.013089969389957472,-0.02590460102922023,0.00026179938779914946,0.027186987855103862
-0.2679961312,-0.2584248408,10.222138147199999,0.003272492347489368,-0.003272492347489368,0.007635815477475192,-0.02902774761567038,0.00015271630954950385,0.0300904019728697
-0.24885355039999998,-0.2584248408,10.193424275999998,0.009817477042468103,-0.001090830782496456,0.009817477042468103,-0.02906653978300102,0.00019634954084936208,0.028153290194073755
-0.23928225999999997,-0.2584248408,10.1838529856,0.011999138607461015,0.0,0.013089969389957472,-0.029072445875077565,0.00026179938779914946,0.02714627840874409
-0.2679961312,-0.2679961312,10.2029955664,0.009817477042468103,-0.001090830782496456,0.009817477042468103,-0.03011355729082113,0.00019634954084936208,0.030274229025499793
-0.24885355039999998,-0.2679961312,10.2029955664,0.014180800172453928,0.0,0.01090830782496456,-0.0300921770074842,0.0002181661564992912,0.028211933535216636
-0.23928225999999997,-0.24885355039999998,10.212566856799999,0.01090830782496456,-0.004363323129985824,0.007635815477475192,-0.028002963085391786,0.00015271630954950385,0.02704993451283215
-0.24885355039999998,-0.2584248408,10.2029955664,0.013089969389957472,-0.00545415391248228,0.008726646259971648,-0.029124825702033445,0.00017453292519943296,0.02819122854980167
-0.2584248408,-0.2775674216,10.222138147199999,0.01090830782496456,-0.00545415391248228,0.008726646259971648,-0.03121494294007451,0.00017453292519943296,0.0291667423808182
-0.22971096959999998,-0.2584248408,10.2029955664,0.007635815477475192,0.001090830782496456,0.014180800172453928,-0.028996544002011862,0.0002836160034490786,0.02593626229250247
-0.24885355039999998,-0.24885355039999998,10.212566856799999,0.007635815477475192,-0.00545415391248228,0.009817477042468103,-0.028024343368728714,0.00019634954084936208,0.02805882263860616
-0.23928225999999997,-0.24885355039999998,10.1838529856,0.009817477042468103,-0.001090830782496456,0.011999138607461015,-0.028017505552721977,0.00023998277214922032,0.027104147159797087
-0.23928225999999997,-0.2584248408,10.193424275999998,0.011999138607461015,-0.001090830782496456,0.006544984694978736,-0.02906653978300102,0.00013089969389957473,0.02712103528339577
-0.24885355039999998,-0.2584248408,10.2029955664,0.009817477042468103,0.0,0.008726646259971648,-0.029017924285348794,0.00017453292519943296,0.02812708769979088
-0.23928225999999997,-0.2584248408,10.2029955664,0.007635815477475192,-0.004363323129985824,0.006544984694978736,-0.029103445418696517,0.00013089969389957473,0.027010318313547
-0.2584248408,-0.2584248408,10.193424275999998,0.006544984694978736,-0.002181661564992912,0.009817477042468103,-0.02908792006633795,0.00019634954084936208,0.029164115598083067
-0.24885355039999998,-0.24885355039999998,10.1742816952,0.008726646259971648,-0.003272492347489368,0.006544984694978736,-0.02808659252633258,0.00013089969389957473,0.02818511887360852
-0.23928225999999997,-0.24885355039999998,10.193424275999998,0.008726646259971648,-0.003272492347489368,0.01090830782496456,-0.028033989122244946,0.0002181661564992912,0.02705752198179474
-0.23928225999999997,-0.23928225999999997,10.212566856799999,0.008726646259971648,0.001090830782496456,0.009817477042468103,-0.02682271453790831,0.00019634954084936208,0.02700777446859153
-0.24885355039999998,-0.23928225999999997,10.193424275999998,0.009817477042468103,0.0,0.013089969389957472,-0.026894487774046648,0.00026179938779914946,0.028154570852081427
-0.2584248408,-0.23928225999999997,10.193424275999998,0.004363323129985824,-0.002181661564992912,0.009817477042468103,-0.026937248340720508,0.00019634954084936208,0.029122684883426887
-0.2679961312,-0.2584248408,10.193424275999998,0.00545415391248228,-0.002181661564992912,0.011999138607461015,-0.02908792006633795,0.00023998277214922032,0.03021765045700033
-0.23928225999999997,-0.2584248408,10.2029955664,0.01090830782496456,0.002181661564992912,0.009817477042468103,-0.028975163718674934,0.00019634954084936208,0.02707445916355779
-0.24885355039999998,-0.24885355039999998,10.2029955664,0.006544984694978736,0.0,0.009817477042468103,-0.027943620545927552,0.00019634954084936208,0.028063597637752676
-0.2584248408,-0.2679961312,10.193424275999998,0.004363323129985824,0.00545415391248228,0.006544984694978736,-0.03001351814940122,0.00013089969389957473,0.029120651818145046
-0.24885355039999998,-0.2679961312,10.193424275999998,0.004363323129985824,-0.002181661564992912,0.009817477042468103,-0.03016318013275973,0.00019634954084936208,0.028045711577457878
-0.24885355039999998,-0.2584248408,10.2029955664,0.008726646259971648,0.001090830782496456,0.008726646259971648,-0.028996544002011862,0.00017453292519943296,0.02810570741645395
-0.24885355039999998,-0.2679961312,10.193424275999998,0.00545415391248228,0.001090830782496456,0.008726646259971648,-0.03009903928274894,0.00017453292519943296,0.028067091860794806
-0.2584248408,-0.2679961312,10.1838529856,0.00545415391248228,-0.003272492347489368,0.007635815477475192,-0.030212856025510174,0.00015271630954950385,0.02916929019551617
-0.22971096959999998,-0.2584248408,10.2029955664,0.01090830782496456,-0.002181661564992912,0.009817477042468103,-0.029060684852022654,0.00019634954084936208,0.02600040314251326
-0.23928225999999997,-0.2584248408,10.2029955664,0.003272492347489368,-0.002181661564992912,0.009817477042468103,-0.029060684852022654,0.00019634954084936208,0.026924797180199276
-0.24885355039999998,-0.23928225999999997,10.2029955664,0.007635815477475192,-0.002181661564992912,0.00545415391248228,-0.026912028240843384,0.0001090830782496456,0.028085604193969077
-0.23928225999999997,-0.2679961312,10.1838529856,0.002181661564992912,-0.004363323129985824,0.009817477042468103,-0.030234236308847105,0.00019634954084936208,0.026953202839823158
-0.2584248408,-0.2679961312,10.212566856799999,0.008726646259971648,-0.001090830782496456,0.00545415391248228,-0.030085367634009576,0.0001090830782496456,0.029151809785732466
-0.24885355039999998,-0.2679961312,10.2029955664,0.008726646259971648,0.0,0.009817477042468103,-0.0300921770074842,0.00019634954084936208,0.02810503211853198
-0.22971096959999998,-0.2679961312,10.2029955664,0.00545415391248228,-0.002181661564992912,0.008726646259971648,-0.03013493757415806,0.00017453292519943296,0.02589287831910954
-0.24885355039999998,-0.2584248408,10.2029955664,0.011999138607461015,-0.002181661564992912,0.013089969389957472,-0.029060684852022654,0.00026179938779914946,0.02816984826646474
-0.24885355039999998,-0.2679961312,10.1838529856,0.008726646259971648,0.0,0.008726646259971648,-0.030148715175499382,0.00017453292519943296,0.028157482471914873
-0.24885355039999998,-0.24885355039999998,10.212566856799999,0.008726646259971648,-0.002181661564992912,0.007635815477475192,-0.027960202518717923,0.00015271630954950385,0.02808020292194309
-0.23928225999999997,-0.24885355039999998,10.2029955664,0.003272492347489368,-0.00545415391248228,0.006544984694978736,-0.028050521962612204,0.00013089969389957473,0.026925422965916646
-0.24885355039999998,-0.24885355039999998,10.1742816952,0.013089969389957472,-0.001090830782496456,0.009817477042468103,-0.02804383195965872,0.00019634954084936208,0.028270640006956244
-0.2584248408,-0.24885355039999998,10.1838529856,0.011999138607461015,-0.004363323129985824,0.008726646259971648,-0.02808164640273277,0.00017453292519943296,0.029298956692020147
-0.24885355039999998,-0.2679961312,10.1838529856,0.001090830782496456,-0.001090830782496456,0.007635815477475192,-0.030170095458836314,0.00015271630954950385,0.02800782048855636
-0.24885355039999998,-0.2679961312,10.2029955664,0.004363323129985824,0.0,0.01090830782496456,-0.0300921770074842,0.0002181661564992912,0.02801951098518426
-0.24885355039999998,-0.24885355039999998,10.193424275999998,0.013089969389957472,-0.004363323129985824,0.008726646259971648,-0.028055369405581877,0.00017453292519943296,0.02821808366512014
-0.24885355039999998,-0.2584248408,10.2029955664,0.009817477042468103,0.003272492347489368,0.006544984694978736,-0.028953783435338002,0.00013089969389957473,0.02812708769979088
-0.24885355039999998,-0.2679961312,10.222138147199999,0.00545415391248228,0.0,0.008726646259971648,-0.03003585044718695,0.00017453292519943296,0.02798863703921957
-0.24885355039999998,-0.2775674216,10.1742816952,0.01090830782496456,-0.004363323129985824,0.007635815477475192,-0.03133981219766465,0.00015271630954950385,0.028225836369416422
-0.2584248408,-0.2775674216,10.193424275999998,0.006544984694978736,-0.003272492347489368,0.011999138607461015,-0.03125976743179993,0.00023998277214922032,0.029162683654074265
-0.2584248408,-0.2584248408,10.222138147199999,0.007635815477475192,-0.003272492347489368,0.011999138607461015,-0.02902774761567038,0.00023998277214922032,0.02910402145511011
-0.24885355039999998,-0.2584248408,10.193424275999998,0.009817477042468103,-0.004363323129985824,0.008726646259971648,-0.029130680633011812,0.00017453292519943296,0.028153290194073755
-0.22971096959999998,-0.2584248408,10.1838529856,0.00545415391248228,-0.001090830782496456,0.007635815477475192,-0.029093826158414497,0.00015271630954950385,0.025941925218672033
-0.24885355039999998,-0.2584248408,10.1838529856,0.008726646259971648,-0.007635815477475192,0.004363323129985824,-0.02922210785843608,8.726646259971648e-05,0.028158161581002948
-0.24885355039999998,-0.2584248408,10.2029955664,0.015271630954950384,-0.002181661564992912,0.01090830782496456,-0.029060684852022654,0.0002181661564992912,0.02823398911647553
-0.24885355039999998,-0.2679961312,10.1838529856,0.011999138607461015,-0.001090830782496456,0.007635815477475192,-0.030170095458836314,0.00015271630954950385,0.028221623321925664
-0.2584248408,-0.2584248408,10.212566856799999,0.008726646259971648,-0.001090830782496456,0.008726646259971648,-0.0290121203717459,0.00017453292519943296,0.02915250905636362
-0.2584248408,-0.2679961312,10.1838529856,0.006544984694978736,-0.003272492347489368,0.009817477042468103,-0.030212856025510174,0.00019634954084936208,0.0291906704788531
-0.2584248408,-0.2584248408,10.2029955664,0.00545415391248228,-0.003272492347489368,0.008726646259971648,-0.029082065135359585,0.00017453292519943296,0.029115526300880455
-0.2679961312,-0.2679961312,10.212566856799999,0.009817477042468103,0.001090830782496456,0.001090830782496456,-0.030042607067335712,2.181661564992912e-05,0.030246068476011065
-0.2584248408,-0.2679961312,10.1838529856,0.008726646259971648,-0.003272492347489368,0.01090830782496456,-0.030212856025510174,0.0002181661564992912,0.02923343104552696
-0.22971096959999998,-0.24885355039999998,10.193424275999998,0.007635815477475192,-0.00545415391248228,0.009817477042468103,-0.028076749688918805,0.00019634954084936208,0.02596105381078871
-0.24885355039999998,-0.2584248408,10.2029955664,0.007635815477475192,-0.002181661564992912,0.01090830782496456,-0.029060684852022654,0.0002181661564992912,0.02808432713311702
-0.24885355039999998,-0.2679961312,10.193424275999998,0.004363323129985824,-0.004363323129985824,0.009817477042468103,-0.030205940699433595,0.00019634954084936208,0.028045711577457878
-0.24885355039999998,-0.2775674216,10.212566856799999,0.011999138607461015,0.0,0.009817477042468103,-0.031137181859702934,0.00019634954084936208,0.028142323568185
-0.23928225999999997,-0.22013967919999997,10.2029955664,0.013089969389957472,-0.001090830782496456,0.008726646259971648,-0.024741802359346074,0.00017453292519943296,0.027119581414682545
-0.23928225999999997,-0.23928225999999997,10.2029955664,0.011999138607461015,-0.002181661564992912,0.009817477042468103,-0.026912028240843384,0.00019634954084936208,0.027097067445069078
-0.24885355039999998,-0.22013967919999997,10.2029955664,0.014180800172453928,-0.004363323129985824,0.006544984694978736,-0.024805943209356866,0.00013089969389957473,0.02821506487486115
-0.24885355039999998,-0.24885355039999998,10.193424275999998,0.011999138607461015,-0.001090830782496456,0.013089969389957472,-0.027991228555571086,0.00026179938779914946,0.02819670338178321
-0.23928225999999997,-0.23928225999999997,10.2029955664,0.008726646259971648,-0.001090830782496456,0.013089969389957472,-0.026890647957506456,0.00026179938779914946,0.027032926595058286
-0.22971096959999998,-0.24885355039999998,10.212566856799999,0.01090830782496456,-0.002181661564992912,0.01090830782496456,-0.027960202518717923,0.0002181661564992912,0.025976858464696988
-0.24885355039999998,-0.2584248408,10.2029955664,0.006544984694978736,-0.001090830782496456,0.009817477042468103,-0.029039304568685725,0.00019634954084936208,0.02806294684978009
-0.23928225999999997,-0.24885355039999998,10.193424275999998,0.003272492347489368,-0.002181661564992912,0.004363323129985824,-0.028012608838908014,8.726646259971648e-05,0.02695062056511009
-0.2584248408,-0.23928225999999997,10.1742816952,0.006544984694978736,0.0,0.013089969389957472,-0.026945070247628704,0.00026179938779914946,0.029220024322045346
-0.2584248408,-0.24885355039999998,10.193424275999998,0.006544984694978736,-0.002181661564992912,0.013089969389957472,-0.028012608838908014,0.00026179938779914946,0.029164793288299098
-0.24885355039999998,-0.2679961312,10.193424275999998,0.007635815477475192,-0.003272492347489368,0.006544984694978736,-0.030184560416096663,0.00013089969389957473,0.02810985242746867
-0.24885355039999998,-0.2584248408,10.222138147199999,0.01090830782496456,-0.003272492347489368,0.011999138607461015,-0.02902774761567038,0.00023998277214922032,0.02809620997111706
-0.24885355039999998,-0.2584248408,10.193424275999998,0.01090830782496456,-0.002181661564992912,0.006544984694978736,-0.02908792006633795,0.00013089969389957473,0.028174670477410686
-0.24885355039999998,-0.23928225999999997,10.2029955664,0.007635815477475192,-0.00545415391248228,0.016362461737446838,-0.026976169090854176,0.00032724923474893676,0.028085604193969077
-0.23928225999999997,-0.2584248408,10.193424275999998,0.009817477042468103,-0.004363323129985824,0.007635815477475192,-0.029130680633011812,0.00015271630954950385,0.02707827471672191
-0.2584248408,-0.2679961312,10.212566856799999,0.006544984694978736,-0.004363323129985824,0.008726646259971648,-0.030149508484020367,0.00017453292519943296,0.029109049219058606
-0.23928225999999997,-0.2679961312,10.2029955664,0.015271630954950384,0.003272492347489368,0.01090830782496456,-0.030028036157473407,0.0002181661564992912,0.02715933094287402
-0.23928225999999997,-0.2584248408,10.2029955664,0.008726646259971648,-0.003272492347489368,0.009817477042468103,-0.029082065135359585,0.00019634954084936208,0.027031698596883928
-0.24885355039999998,-0.2584248408,10.1838529856,0.011999138607461015,-0.002181661564992912,0.007635815477475192,-0.029115206441751425,0.00015271630954950385,0.02822230243101374
-0.24885355039999998,-0.24885355039999998,10.222138147199999,0.009817477042468103,-0.002181661564992912,0.017453292519943295,-0.02793407291935425,0.00034906585039886593,0.028075476830164824
-0.2584248408,-0.2679961312,10.1742816952,0.008726646259971648,-0.002181661564992912,0.007635815477475192,-0.030219824551980475,0.00015271630954950385,0.02926074033850455
-0.23928225999999997,-0.2584248408,10.1838529856,0.009817477042468103,0.002181661564992912,0.01090830782496456,-0.029029685308403705,0.0002181661564992912,0.02710351784207023
-0.23928225999999997,-0.2679961312,10.2029955664,0.009817477042468103,-0.003272492347489368,0.011999138607461015,-0.03015631785749499,0.00023998277214922032,0.02705242952618937
-0.24885355039999998,-0.23928225999999997,10.2029955664,0.004363323129985824,-0.002181661564992912,0.008726646259971648,-0.026912028240843384,0.00017453292519943296,0.028021463343958285
-0.24885355039999998,-0.2679961312,10.1838529856,0.008726646259971648,-0.001090830782496456,0.01090830782496456,-0.030170095458836314,0.0002181661564992912,0.028157482471914873
-0.2679961312,-0.24885355039999998,10.212566856799999,0.01090830782496456,-0.001090830782496456,0.01090830782496456,-0.027938822235380995,0.0002181661564992912,0.030268872709596942
-0.24885355039999998,-0.2584248408,10.193424275999998,0.01090830782496456,-0.003272492347489368,0.011999138607461015,-0.02910930034967488,0.00023998277214922032,0.028174670477410686
-0.22971096959999998,-0.2584248408,10.212566856799999,0.006544984694978736,-0.004363323129985824,0.01090830782496456,-0.029076261221756692,0.0002181661564992912,0.025890738237160607
-0.24885355039999998,-0.2679961312,10.193424275999998,0.013089969389957472,-0.002181661564992912,0.009817477042468103,-0.03016318013275973,0.00019634954084936208,0.02821675384415332
-0.24885355039999998,-0.24885355039999998,10.2029955664,0.00545415391248228,-0.003272492347489368,0.009817477042468103,-0.028007761395938344,0.00019634954084936208,0.028042217354415745
-0.23928225999999997,-0.2584248408,10.193424275999998,0.008726646259971648,0.0,0.01090830782496456,-0.02904515949966409,0.0002181661564992912,0.02705689443338498
-0.24885355039999998,-0.2584248408,10.1838529856,0.017453292519943295,-0.002181661564992912,0.013089969389957472,-0.029115206441751425,0.00026179938779914946,0.028329203847698395
-0.24885355039999998,-0.2584248408,10.193424275999998,0.007635815477475192,-0.003272492347489368,0.00545415391248228,-0.02910930034967488,0.0001090830782496456,0.028110529627399895
-0.24885355039999998,-0.24885355039999998,10.2029955664,0.00545415391248228,-0.00545415391248228,0.008726646259971648,-0.028050521962612204,0.00017453292519943296,0.028042217354415745
-0.22971096959999998,-0.2584248408,10.212566856799999,0.013089969389957472,0.001090830782496456,0.016362461737446838,-0.028969359805072037,0.00032724923474893676,0.02601901993718219
-0.24885355039999998,-0.2584248408,10.193424275999998,0.013089969389957472,-0.004363323129985824,0.011999138607461015,-0.029130680633011812,0.00023998277214922032,0.028217431044084546
-0.2584248408,-0.23928225999999997,10.212566856799999,0.014180800172453928,-0.001090830782496456,0.01090830782496456,-0.026865475104582173,0.0002181661564992912,0.029260732868602674
-0.22971096959999998,-0.22013967919999997,10.2029955664,0.014180800172453928,-0.002181661564992912,0.009817477042468103,-0.024763182642683002,0.00019634954084936208,0.026066811307256414
-0.2584248408,-0.2679961312,10.193424275999998,0.008726646259971648,-0.002181661564992912,0.006544984694978736,-0.03016318013275973,0.00013089969389957473,0.029206172951492766
-0.22971096959999998,-0.2584248408,10.193424275999998,0.008726646259971648,0.001090830782496456,0.01090830782496456,-0.029023779216327157,0.0002181661564992912,0.02598183162165509
-0.24885355039999998,-0.24885355039999998,10.212566856799999,0.00545415391248228,-0.004363323129985824,0.003272492347489368,-0.028002963085391786,6.544984694978737e-05,0.028016062071932298
-0.24885355039999998,-0.2679961312,10.212566856799999,0.01090830782496456,0.001090830782496456,0.008726646259971648,-0.030042607067335712,0.00017453292519943296,0.028121641123823735
-0.24885355039999998,-0.2584248408,10.193424275999998,0.008726646259971648,-0.001090830782496456,0.007635815477475192,-0.02906653978300102,0.00015271630954950385,0.028131909910736823
-0.24885355039999998,-0.2775674216,10.2029955664,0.002181661564992912,-0.002181661564992912,0.008726646259971648,-0.03120913739459626,0.00017453292519943296,0.02797605061597584
-0.2679961312,-0.2679961312,10.193424275999998,0.011999138607461015,-0.004363323129985824,0.007635815477475192,-0.030205940699433595,0.00015271630954950385,0.030345202934136725
-0.23928225999999997,-0.2584248408,10.222138147199999,0.004363323129985824,-0.003272492347489368,0.009817477042468103,-0.02902774761567038,0.00019634954084936208,0.0268959271268093
-0.24885355039999998,-0.2584248408,10.193424275999998,0.009817477042468103,-0.004363323129985824,0.01090830782496456,-0.029130680633011812,0.0002181661564992912,0.028153290194073755
-0.24885355039999998,-0.2679961312,10.193424275999998,0.014180800172453928,0.002181661564992912,0.007635815477475192,-0.03007765899941201,0.00015271630954950385,0.028238134127490253
-0.2679961312,-0.2584248408,10.1742816952,0.008726646259971648,-0.003272492347489368,0.01090830782496456,-0.029163924405863004,0.0002181661564992912,0.030338381082059895
-0.23928225999999997,-0.2679961312,10.193424275999998,0.006544984694978736,0.0,0.007635815477475192,-0.03012041956608587,0.00015271630954950385,0.02701348268368783
-0.23928225999999997,-0.24885355039999998,10.193424275999998,0.009817477042468103,-0.001090830782496456,0.006544984694978736,-0.027991228555571086,0.00013089969389957473,0.027078902265131672
-0.2584248408,-0.22971096959999998,10.193424275999998,0.011999138607461015,-0.003272492347489368,0.007635815477475192,-0.025883220745883298,0.00015271630954950385,0.029272973495007935
-0.23928225999999997,-0.2584248408,10.212566856799999,0.008726646259971648,-0.004363323129985824,0.013089969389957472,-0.029076261221756692,0.00026179938779914946,0.02700654991653957
-0.2584248408,-0.23928225999999997,10.1838529856,0.014180800172453928,-0.004363323129985824,0.006544984694978736,-0.027005276387341536,0.00013089969389957473,0.02934237125917993
-0.22971096959999998,-0.2584248408,10.212566856799999,0.009817477042468103,-0.004363323129985824,0.011999138607461015,-0.029076261221756692,0.00023998277214922032,0.0259548790871714
-0.2584248408,-0.23928225999999997,10.193424275999998,0.009817477042468103,-0.002181661564992912,0.008726646259971648,-0.026937248340720508,0.00017453292519943296,0.029229586300111538
-0.22971096959999998,-0.2775674216,10.212566856799999,0.008726646259971648,-0.003272492347489368,0.009817477042468103,-0.031201322709713725,0.00019634954084936208,0.025932232930939568
-0.23928225999999997,-0.24885355039999998,10.193424275999998,0.014180800172453928,0.0,0.01090830782496456,-0.027969848272234154,0.0002181661564992912,0.027164423398479395
-0.2584248408,-0.2679961312,10.164710404799997,0.006544984694978736,-0.002181661564992912,0.007635815477475192,-0.030248226712326024,0.00015271630954950385,0.02924534040805652
-0.22971096959999998,-0.24885355039999998,10.193424275999998,0.008726646259971648,0.0,0.009817477042468103,-0.027969848272234154,0.00019634954084936208,0.025982434094125637
-0.24885355039999998,-0.2679961312,10.1838529856,0.015271630954950384,0.0,0.013089969389957472,-0.030148715175499382,0.00026179938779914946,0.028285764171936456
-0.2584248408,-0.24885355039999998,10.2029955664,0.01090830782496456,-0.001090830782496456,0.009817477042468103,-0.027965000829264484,0.00019634954084936208,0.029223103504363617
-0.2584248408,-0.2584248408,10.193424275999998,0.008726646259971648,-0.002181661564992912,0.009817477042468103,-0.02908792006633795,0.00019634954084936208,0.029206876164756927
-0.24885355039999998,-0.2584248408,10.1838529856,0.01090830782496456,-0.003272492347489368,0.013089969389957472,-0.029136586725088356,0.00026179938779914946,0.02820092214767681
-0.24885355039999998,-0.24885355039999998,10.193424275999998,0.00545415391248228,-0.002181661564992912,0.01090830782496456,-0.028012608838908014,0.0002181661564992912,0.028068421681761626
-0.24885355039999998,-0.23928225999999997,10.1838529856,0.013089969389957472,0.0,0.008726646259971648,-0.026919755253993812,0.00017453292519943296,0.02824496698303298
-0.24885355039999998,-0.2775674216,10.1838529856,0.008726646259971648,-0.003272492347489368,0.009817477042468103,-0.031289072125632075,0.00019634954084936208,0.02815677872011332
-0.2584248408,-0.2584248408,10.1838529856,0.004363323129985824,-0.00545415391248228,0.008726646259971648,-0.029179347291762216,0.00017453292519943296,0.02914861510787504
-0.23928225999999997,-0.24885355039999998,10.1838529856,0.011999138607461015,-0.002181661564992912,0.011999138607461015,-0.028038885836058906,0.00023998277214922032,0.027146907726470947
-0.24885355039999998,-0.2679961312,10.222138147199999,0.003272492347489368,-0.002181661564992912,0.008726646259971648,-0.03007861101386081,0.00017453292519943296,0.02794587647254571
-0.24885355039999998,-0.2584248408,10.155139114399999,0.01090830782496456,-0.001090830782496456,0.006544984694978736,-0.029175993696590272,0.00013089969389957473,0.028279973601932802
-0.24885355039999998,-0.2679961312,10.193424275999998,0.014180800172453928,0.001090830782496456,0.008726646259971648,-0.03009903928274894,0.00017453292519943296,0.028238134127490253
-0.23928225999999997,-0.2584248408,10.2029955664,0.01090830782496456,0.002181661564992912,0.009817477042468103,-0.028975163718674934,0.00019634954084936208,0.02707445916355779
-0.24885355039999998,-0.24885355039999998,10.1838529856,0.01090830782496456,-0.002181661564992912,0.011999138607461015,-0.028038885836058906,0.00023998277214922032,0.02820157660866434
-0.2584248408,-0.24885355039999998,10.1742816952,0.013089969389957472,-0.002181661564992912,0.00545415391248228,-0.028065212242995647,0.0001090830782496456,0.029347650175980063
-0.24885355039999998,-0.24885355039999998,10.212566856799999,0.011999138607461015,-0.003272492347489368,0.008726646259971648,-0.027981582802054854,0.00017453292519943296,0.02814434377195388
-0.24885355039999998,-0.2584248408,10.193424275999998,0.013089969389957472,-0.001090830782496456,0.009817477042468103,-0.02906653978300102,0.00019634954084936208,0.028217431044084546
-0.2584248408,-0.2584248408,10.193424275999998,0.009817477042468103,0.0,0.008726646259971648,-0.02904515949966409,0.00017453292519943296,0.029228256448093858
-0.24885355039999998,-0.2584248408,10.2029955664,0.007635815477475192,-0.001090830782496456,0.009817477042468103,-0.029039304568685725,0.00019634954084936208,0.02808432713311702
-0.24885355039999998,-0.23928225999999997,10.193424275999998,0.007635815477475192,-0.004363323129985824,0.013089969389957472,-0.02698000890739437,0.00026179938779914946,0.028111810285407567
-0.23928225999999997,-0.22013967919999997,10.164710404799997,0.009817477042468103,-0.001090830782496456,0.009817477042468103,-0.02483488224579725,0.00019634954084936208,0.02715653493849566
-0.24885355039999998,-0.24885355039999998,10.2029955664,0.009817477042468103,-0.003272492347489368,0.011999138607461015,-0.028007761395938344,0.00023998277214922032,0.028127738487763468
-0.24885355039999998,-0.2775674216,10.1838529856,0.009817477042468103,-0.003272492347489368,0.007635815477475192,-0.031289072125632075,0.00015271630954950385,0.028178159003450252
-0.2584248408,-0.24885355039999998,10.193424275999998,0.014180800172453928,-0.001090830782496456,0.008726646259971648,-0.027991228555571086,0.00017453292519943296,0.029314455271657613
-0.23928225999999997,-0.2584248408,10.212566856799999,0.006544984694978736,0.0,0.004363323129985824,-0.02899074008840897,8.726646259971648e-05,0.02696378934986571
-0.2584248408,-0.2584248408,10.222138147199999,0.006544984694978736,-0.002181661564992912,0.009817477042468103,-0.029006367332333447,0.00019634954084936208,0.02908264117177318
-0.24885355039999998,-0.23928225999999997,10.193424275999998,0.016362461737446838,-0.003272492347489368,0.013089969389957472,-0.02695862862405744,0.00026179938779914946,0.02828285255210301
-0.23928225999999997,-0.2584248408,10.212566856799999,0.009817477042468103,-0.001090830782496456,0.013089969389957472,-0.0290121203717459,0.00026179938779914946,0.027027930199876503
-0.22971096959999998,-0.23928225999999997,10.212566856799999,0.01090830782496456,-0.003272492347489368,0.011999138607461015,-0.026908235671256032,0.00023998277214922032,0.02597743499101854
-0.2584248408,-0.24885355039999998,10.2029955664,0.008726646259971648,-0.004363323129985824,0.00545415391248228,-0.028029141679275275,0.0001090830782496456,0.029180342937689754
-0.24885355039999998,-0.22971096959999998,10.1742816952,0.003272492347489368,-0.002181661564992912,0.001090830782496456,-0.025910401737885478,2.181661564992912e-05,0.028079455899278676
-0.24885355039999998,-0.2584248408,10.2029955664,0.008726646259971648,0.002181661564992912,0.008726646259971648,-0.028975163718674934,0.00017453292519943296,0.02810570741645395
-0.23928225999999997,-0.23928225999999997,10.2029955664,0.011999138607461015,-0.002181661564992912,0.01090830782496456,-0.026912028240843384,0.0002181661564992912,0.027097067445069078
-0.24885355039999998,-0.2775674216,10.2029955664,0.008726646259971648,0.0,0.011999138607461015,-0.0311663768279224,0.00023998277214922032,0.028104332315997422
-0.24885355039999998,-0.24885355039999998,10.193424275999998,0.007635815477475192,0.001090830782496456,0.008726646259971648,-0.027948467988897222,0.00017453292519943296,0.02811118224843549
-0.22971096959999998,-0.24885355039999998,10.1838529856,0.01090830782496456,0.0,0.006544984694978736,-0.027996125269385046,0.00013089969389957473,0.02604943080649391
-0.24885355039999998,-0.2584248408,10.1838529856,0.008726646259971648,-0.001090830782496456,0.01090830782496456,-0.029093826158414497,0.0002181661564992912,0.028158161581002948
-0.23928225999999997,-0.23928225999999997,10.193424275999998,0.009817477042468103,-0.002181661564992912,0.009817477042468103,-0.026937248340720508,0.00019634954084936208,0.0270795061739584
-0.2584248408,-0.2679961312,10.1838529856,0.011999138607461015,-0.002181661564992912,0.01090830782496456,-0.030191475742173242,0.0002181661564992912,0.029297571895537753
-0.24885355039999998,-0.23928225999999997,10.212566856799999,0.009817477042468103,-0.001090830782496456,0.013089969389957472,-0.026865475104582173,0.00026179938779914946,0.02810220772066597
-0.24885355039999998,-0.2584248408,10.1838529856,0.008726646259971648,-0.006544984694978736,0.008726646259971648,-0.029200727575099148,0.00017453292519943296,0.028158161581002948
-0.2584248408,-0.23928225999999997,10.1838529856,0.006544984694978736,0.001090830782496456,0.01090830782496456,-0.02689837497065688,0.0002181661564992912,0.029192709275821415
-0.24885355039999998,-0.2584248408,10.212566856799999,0.009817477042468103,-0.003272492347489368,0.01090830782496456,-0.02905488093841976,0.0002181661564992912,0.028100934243513724
-0.24885355039999998,-0.2584248408,10.212566856799999,0.007635815477475192,-0.004363323129985824,0.007635815477475192,-0.029076261221756692,0.00015271630954950385,0.028058173676839864
-0.24885355039999998,-0.2679961312,10.1838529856,0.01090830782496456,-0.001090830782496456,0.014180800172453928,-0.030170095458836314,0.0002836160034490786,0.028200243038588736
-0.24885355039999998,-0.2679961312,10.2029955664,0.006544984694978736,-0.00545415391248228,0.007635815477475192,-0.03019907842416885,0.00015271630954950385,0.02806227155185812
-0.2584248408,-0.23928225999999997,10.1838529856,0.008726646259971648,0.0,0.009817477042468103,-0.026919755253993812,0.00019634954084936208,0.029235469842495275
-0.24885355039999998,-0.22971096959999998,10.193424275999998,0.0,-0.004363323129985824,0.013089969389957472,-0.02590460102922023,0.00026179938779914946,0.027962751749983767
-0.2584248408,-0.2679961312,10.2029955664,0.013089969389957472,0.0,0.009817477042468103,-0.0300921770074842,0.00019634954084936208,0.029264487045984795
-0.24885355039999998,-0.24885355039999998,10.1742816952,0.007635815477475192,-0.002181661564992912,0.01090830782496456,-0.028065212242995647,0.0002181661564992912,0.028163738590271593
-0.23928225999999997,-0.24885355039999998,10.2029955664,0.007635815477475192,-0.003272492347489368,0.009817477042468103,-0.028007761395938344,0.00019634954084936208,0.02701094409926437
-0.2584248408,-0.24885355039999998,10.193424275999998,0.006544984694978736,-0.003272492347489368,0.009817477042468103,-0.028033989122244946,0.00019634954084936208,0.029164793288299098
-0.23928225999999997,-0.2775674216,10.2029955664,0.009817477042468103,0.001090830782496456,0.009817477042468103,-0.031144996544585468,0.00019634954084936208,0.02705175660897569
-0.24885355039999998,-0.2584248408,10.2029955664,0.007635815477475192,-0.004363323129985824,0.01090830782496456,-0.029103445418696517,0.0002181661564992912,0.02808432713311702
-0.2679961312,-0.23928225999999997,10.1742816952,0.007635815477475192,-0.003272492347489368,0.009817477042468103,-0.027009211097639495,0.00019634954084936208,0.030318387627958528
-0.24885355039999998,-0.2775674216,10.212566856799999,0.008726646259971648,-0.002181661564992912,0.01090830782496456,-0.031179942426376794,0.0002181661564992912,0.028078182718174208
-0.24885355039999998,-0.2679961312,10.222138147199999,0.007635815477475192,-0.003272492347489368,0.008726646259971648,-0.03009999129719774,0.00017453292519943296,0.028031397605893432
-0.24885355039999998,-0.24885355039999998,10.193424275999998,0.011999138607461015,-0.003272492347489368,0.009817477042468103,-0.028033989122244946,0.00019634954084936208,0.02819670338178321
-0.2584248408,-0.22013967919999997,10.2029955664,0.006544984694978736,-0.002181661564992912,0.014180800172453928,-0.024763182642683002,0.0002836160034490786,0.02913945697026874
-0.23928225999999997,-0.2584248408,10.1742816952,0.00545415391248228,0.001090830782496456,0.008726646259971648,-0.02907840327251528,0.00017453292519943296,0.027043287256106746
-0.22971096959999998,-0.2679961312,10.193424275999998,0.007635815477475192,-0.004363323129985824,0.01090830782496456,-0.030205940699433595,0.0002181661564992912,0.025959826175640823
-0.2584248408,-0.2584248408,10.212566856799999,0.01090830782496456,0.0,0.014180800172453928,-0.02899074008840897,0.0002836160034490786,0.029195269623037482
-0.2584248408,-0.2584248408,10.2029955664,0.017453292519943295,0.001090830782496456,0.006544984694978736,-0.028996544002011862,0.00013089969389957473,0.029350709417586694
-0.23928225999999997,-0.23928225999999997,10.212566856799999,0.004363323129985824,-0.003272492347489368,0.009817477042468103,-0.026908235671256032,0.00019634954084936208,0.02692225333524381
-0.2584248408,-0.24885355039999998,10.212566856799999,0.006544984694978736,-0.001090830782496456,0.006544984694978736,-0.027938822235380995,0.00013089969389957473,0.029110422380190345
-0.2584248408,-0.24885355039999998,10.212566856799999,0.013089969389957472,-0.002181661564992912,0.01090830782496456,-0.027960202518717923,0.0002181661564992912,0.029238704080211928
-0.24885355039999998,-0.24885355039999998,10.1838529856,0.009817477042468103,0.0,0.01090830782496456,-0.027996125269385046,0.0002181661564992912,0.02818019632532741
-0.2584248408,-0.2584248408,10.1838529856,0.011999138607461015,-0.003272492347489368,0.01090830782496456,-0.029136586725088356,0.0002181661564992912,0.029298277091233553
-0.24885355039999998,-0.2584248408,10.193424275999998,0.002181661564992912,-0.004363323129985824,0.01090830782496456,-0.029130680633011812,0.0002181661564992912,0.02800362821071524
-0.24885355039999998,-0.24885355039999998,10.2029955664,0.00545415391248228,-0.003272492347489368,0.011999138607461015,-0.028007761395938344,0.00023998277214922032,0.028042217354415745
-0.2584248408,-0.2584248408,10.193424275999998,0.011999138607461015,-0.003272492347489368,0.013089969389957472,-0.02910930034967488,0.00026179938779914946,0.029271017014767718
-0.24885355039999998,-0.2584248408,10.1838529856,0.008726646259971648,-0.00545415391248228,0.008726646259971648,-0.029179347291762216,0.00017453292519943296,0.028158161581002948
-0.23928225999999997,-0.23928225999999997,10.1838529856,0.014180800172453928,-0.004363323129985824,0.011999138607461015,-0.027005276387341536,0.00023998277214922032,0.027190273904717097
-0.22971096959999998,-0.2679961312,10.1838529856,0.007635815477475192,-0.007635815477475192,0.006544984694978736,-0.030298377158857897,0.00013089969389957473,0.025984058860111032
-0.2584248408,-0.2679961312,10.212566856799999,0.002181661564992912,-0.002181661564992912,0.01090830782496456,-0.030106747917346504,0.0002181661564992912,0.029023528085710883
-0.24885355039999998,-0.2679961312,10.222138147199999,0.007635815477475192,-0.00545415391248228,0.011999138607461015,-0.0301427518638716,0.00023998277214922032,0.028031397605893432
-0.24885355039999998,-0.2584248408,10.2029955664,0.008726646259971648,-0.00545415391248228,0.007635815477475192,-0.029124825702033445,0.00015271630954950385,0.02810570741645395
-0.2584248408,-0.23928225999999997,10.212566856799999,0.01090830782496456,-0.004363323129985824,0.007635815477475192,-0.026929615954592964,0.00015271630954950385,0.029196592018591882
-0.2584248408,-0.24885355039999998,10.193424275999998,0.009817477042468103,-0.001090830782496456,0.008726646259971648,-0.027991228555571086,0.00017453292519943296,0.02922893413830989
-0.23928225999999997,-0.2679961312,10.193424275999998,0.015271630954950384,-0.002181661564992912,0.008726646259971648,-0.03016318013275973,0.00017453292519943296,0.027184524950383274
-0.24885355039999998,-0.2584248408,10.193424275999998,0.007635815477475192,-0.004363323129985824,0.013089969389957472,-0.029130680633011812,0.00026179938779914946,0.028110529627399895
-0.23928225999999997,-0.24885355039999998,10.193424275999998,0.007635815477475192,-0.004363323129985824,0.003272492347489368,-0.028055369405581877,6.544984694978737e-05,0.027036141698457812
-0.21056838879999998,-0.24885355039999998,10.1838529856,0.014180800172453928,-0.002181661564992912,0.013089969389957472,-0.028038885836058906,0.00026179938779914946,0.023961243549991983
-0.23928225999999997,-0.2775674216,10.2029955664,0.008726646259971648,-0.006544984694978736,0.007635815477475192,-0.03129465852794398,0.00015271630954950385,0.027030376325638757
-0.24885355039999998,-0.24885355039999998,10.2029955664,0.003272492347489368,-0.00545415391248228,0.006544984694978736,-0.028050521962612204,0.00013089969389957473,0.027999456787741885
-0.23928225999999997,-0.24885355039999998,10.193424275999998,0.01090830782496456,0.001090830782496456,0.008726646259971648,-0.027948467988897222,0.00017453292519943296,0.027100282548468604
-0.2584248408,-0.24885355039999998,10.193424275999998,0.007635815477475192,-0.002181661564992912,0.00545415391248228,-0.028012608838908014,0.0001090830782496456,0.02918617357163603
-0.2584248408,-0.2679961312,10.2029955664,0.004363323129985824,-0.00545415391248228,0.007635815477475192,-0.03019907842416885,0.00015271630954950385,0.02909344477928935
-0.24885355039999998,-0.2584248408,10.212566856799999,0.013089969389957472,0.003272492347489368,0.015271630954950384,-0.028926599238398177,0.0003054326190990077,0.028165075093524516
-0.23928225999999997,-0.2679961312,10.222138147199999,0.008726646259971648,-0.006544984694978736,0.00545415391248228,-0.030164132147208533,0.0001090830782496456,0.026980802543617077
-0.2584248408,-0.24885355039999998,10.193424275999998,0.006544984694978736,-0.001090830782496456,0.013089969389957472,-0.027991228555571086,0.00026179938779914946,0.029164793288299098
-0.2584248408,-0.2584248408,10.1742816952,0.006544984694978736,0.0,0.008726646259971648,-0.029099783555852212,0.00017453292519943296,0.02921868695741464
-0.23928225999999997,-0.2584248408,10.2029955664,0.01090830782496456,-0.002181661564992912,0.014180800172453928,-0.029060684852022654,0.0002836160034490786,0.02707445916355779
-0.23928225999999997,-0.24885355039999998,10.2029955664,0.013089969389957472,-0.001090830782496456,0.011999138607461015,-0.027965000829264484,0.00023998277214922032,0.02711784551594902
-0.24885355039999998,-0.2584248408,10.193424275999998,0.007635815477475192,-0.002181661564992912,0.006544984694978736,-0.02908792006633795,0.00013089969389957473,0.028110529627399895
