accel_x,accel_y,accel_z,gyro_x,gyro_y,gyro_z,pitch,yaw,roll
0.12442677519999999,-0.5455635528,10.1264252432,0.02399827721492203,-0.02454369260617026,0.017453292519943295,-0.06215790249874084,0.00034906585039886593,-0.013588786699029382
0.12442677519999999,-0.5264209719999999,10.1359965336,0.016907877128695067,-0.02454369260617026,0.016362461737446838,-0.05994166293729394,0.00032724923474893676,-0.013715921112524848
0.16271193679999998,-0.5647061335999999,10.116853952799998,0.019089538693687978,-0.02999784651865254,0.017998707911191524,-0.06448477385529199,0.0003599741582238305,-0.018025671409476023
0.14356935599999998,-0.5455635528,10.1264252432,0.026179938779914945,-0.022907446432425576,0.016362461737446838,-0.06212583207373544,0.00032724923474893676,-0.015708703041590374
0.1339980656,-0.5359922624,10.164710404799997,0.019089538693687978,-0.02454369260617026,0.016362461737446838,-0.060850072801194165,0.00032724923474893676,-0.014710247645020371
0.11485548479999999,-0.5359922624,10.1742816952,0.02672535417116317,-0.02890701573615608,0.015817046346198613,-0.06087890763403153,0.0003163409269239723,-0.012393740451399172
0.12442677519999999,-0.5264209719999999,10.1742816952,0.025089107997418487,-0.02945243112740431,0.017453292519943295,-0.05981452695787535,0.00034906585039886593,-0.013502856497931176
0.12442677519999999,-0.5359922624,10.1838529856,0.019089538693687978,-0.022362031041177347,0.0136353847812057,-0.060694045892073924,0.000272707695624114,-0.013606648118561746
0.1531406464,-0.5551348432,10.155139114399999,0.023452861823673805,-0.026179938779914945,0.014726215563702155,-0.06309278620716649,0.0002945243112740431,-0.016793794668924278
0.14356935599999998,-0.5168496816,10.193424275999998,0.026179938779914945,-0.028361600344907856,0.011999138607461015,-0.05860893386833349,0.00023998277214922032,-0.015604759451856721
0.1531406464,-0.5551348432,10.155139114399999,0.022362031041177347,-0.02999784651865254,0.019634954084936207,-0.06316761719884574,0.00039269908169872416,-0.01681517495226121
0.12442677519999999,-0.5455635528,10.1742816952,0.02399827721492203,-0.02181661564992912,0.01090830782496456,-0.06181490035177838,0.0002181661564992912,-0.013522853713603912
0.1531406464,-0.5264209719999999,10.1742816952,0.02890701573615608,-0.025634523388666716,0.014726215563702155,-0.0597396959661961,0.0002945243112740431,-0.016657108489150908
0.11485548479999999,-0.5455635528,10.1838529856,0.02999784651865254,-0.019634954084936207,0.015817046346198613,-0.06171455512258267,0.0003163409269239723,-0.012316851420886784
0.1531406464,-0.5359922624,10.1742816952,0.027816184953659628,-0.02672535417116317,0.008726646259971648,-0.06083614706735767,0.00017453292519943296,-0.016677645254872777
0.14356935599999998,-0.5551348432,10.145567823999999,0.03654283121363128,-0.02399827721492203,0.016362461737446838,-0.06310894557852287,0.00032724923474893676,-0.015474249496181473
0.1339980656,-0.5359922624,10.1359965336,0.025634523388666716,-0.02672535417116317,0.012544553998709244,-0.061063532819842385,0.0002508910799741849,-0.014624574029706433
0.16271193679999998,-0.5264209719999999,10.145567823999999,0.026179938779914945,-0.020180369476184436,0.0136353847812057,-0.05980014738566364,0.000272707695624114,-0.017838506672237193
0.14356935599999998,-0.5551348432,10.145567823999999,0.017998707911191524,-0.023452861823673805,0.015817046346198613,-0.0630982554368544,0.0003163409269239723,-0.015837714312909295
0.14356935599999998,-0.5168496816,10.2508520184,0.028361600344907856,-0.025634523388666716,0.016362461737446838,-0.058230807535710125,0.00032724923474893676,-0.01547194399479089
0.14356935599999998,-0.5168496816,10.1072826624,0.028361600344907856,-0.0272707695624114,0.0136353847812057,-0.05908146691824075,0.000272707695624114,-0.015698992171292083
0.1339980656,-0.5455635528,10.1742816952,0.02672535417116317,-0.026179938779914945,0.015271630954950384,-0.0619004214851261,0.0003054326190990077,-0.014545684874121584
0.1531406464,-0.5264209719999999,10.193424275999998,0.018544123302439753,-0.028361600344907856,0.009817477042468103,-0.05968210051683333,0.00019634954084936208,-0.016827967191158682
0.1339980656,-0.5455635528,10.1264252432,0.020725784867432664,-0.027816184953659628,0.0136353847812057,-0.06222204334875163,0.000272707695624114,-0.014734279486564649
0.1531406464,-0.5359922624,10.155139114399999,0.027816184953659628,-0.016362461737446838,0.015271630954950384,-0.06074651353458885,0.0003054326190990077,-0.016710015562320237
0.16271193679999998,-0.5455635528,10.1072826624,0.025634523388666716,-0.025089107997418487,0.012544553998709244,-0.06228517874179029,0.0002508910799741849,-0.01791666642326146
0.16271193679999998,-0.5359922624,10.164710404799997,0.02181661564992912,-0.02399827721492203,0.015271630954950384,-0.060839382659525695,0.0003054326190990077,-0.017888666963109222
0.16271193679999998,-0.5264209719999999,10.1838529856,0.032724923474893676,-0.02454369260617026,0.016362461737446838,-0.05966274055972604,0.00032724923474893676,-0.0176414297684126
0.12442677519999999,-0.5264209719999999,10.212566856799999,0.02945243112740431,-0.025634523388666716,0.014180800172453928,-0.059518018838544934,0.0002836160034490786,-0.013365016459702051
0.14356935599999998,-0.5359922624,10.164710404799997,0.022362031041177347,-0.02672535417116317,0.015817046346198613,-0.06089283336786802,0.0003163409269239723,-0.015723426008696077
0.16271193679999998,-0.5455635528,10.2317094376,0.0272707695624114,-0.026179938779914945,0.011999138607461015,-0.0615565249462614,0.00023998277214922032,-0.017661279865405253
0.1531406464,-0.5264209719999999,10.1359965336,0.022907446432425576,-0.026179938779914945,0.014180800172453928,-0.05997373336229933,0.0002836160034490786,-0.016839571958335464
0.11485548479999999,-0.5551348432,10.145567823999999,0.027816184953659628,-0.02454369260617026,0.019089538693687978,-0.06311963572019133,0.0003817907738737596,-0.012407504240623273
0.1531406464,-0.5359922624,10.2029955664,0.02454369260617026,-0.02127120025868089,0.015817046346198613,-0.06055982310882979,0.0003163409269239723,-0.016693457396107465
0.14356935599999998,-0.5072783912,10.222138147199999,0.031634092692397225,-0.026179938779914945,0.017453292519943295,-0.05733311175497598,0.00034906585039886593,-0.015453456526650634
0.12442677519999999,-0.5264209719999999,10.145567823999999,0.027816184953659628,-0.023452861823673805,0.01090830782496456,-0.05986428823567443,0.0002181661564992912,-0.013488903015885048
0.1339980656,-0.5647061335999999,10.1264252432,0.020725784867432664,-0.02672535417116317,0.016907877128695067,-0.06436036397046166,0.00033815754257390134,-0.014732715437276911
0.10528419439999999,-0.5264209719999999,10.212566856799999,0.025634523388666716,-0.028361600344907856,0.019089538693687978,-0.05957146954688726,0.0003817907738737596,-0.011295046004993448
0.14356935599999998,-0.5455635528,10.116853952799998,0.033270338866141905,-0.02399827721492203,0.015817046346198613,-0.06220545041814712,0.0003163409269239723,-0.015585031721395439
0.12442677519999999,-0.5359922624,10.155139114399999,0.019634954084936207,-0.018544123302439753,0.012544553998709244,-0.06078927410126271,0.0002508910799741849,-0.013635375401619887
0.14356935599999998,-0.5455635528,10.1838529856,0.0272707695624114,-0.02127120025868089,0.015817046346198613,-0.061746625547588065,0.0003163409269239723,-0.015596120874264407
0.11485548479999999,-0.5264209719999999,10.097711372,0.02890701573615608,-0.020180369476184436,0.0136353847812057,-0.060081178113600794,0.000272707695624114,-0.012449297540539295
0.10528419439999999,-0.5168496816,10.222138147199999,0.022907446432425576,-0.02127120025868089,0.014726215563702155,-0.058307169372220934,0.0002945243112740431,-0.011338042068776468
0.14356935599999998,-0.5264209719999999,10.1072826624,0.025089107997418487,-0.02399827721492203,0.011453723216212788,-0.06009959063305635,0.00022907446432425576,-0.01576234083332721
0.14356935599999998,-0.5072783912,10.155139114399999,0.03381575425739013,-0.026179938779914945,0.015817046346198613,-0.057707364186072675,0.0003163409269239723,-0.01551646446608308
0.1531406464,-0.5359922624,10.212566856799999,0.02399827721492203,-0.02399827721492203,0.014180800172453928,-0.06055701076610143,0.0002836160034490786,-0.016688098097442875
0.1531406464,-0.5359922624,10.1838529856,0.02454369260617026,-0.014726215563702155,0.015817046346198613,-0.06054438390871541,0.0003163409269239723,-0.016725646386386992
0.12442677519999999,-0.5072783912,10.0881400816,0.02672535417116317,-0.026179938779914945,0.013089969389957472,-0.05808657525630273,0.00026179938779914946,-0.013591317874857772
0.12442677519999999,-0.5264209719999999,10.1742816952,0.022907446432425576,-0.02890701573615608,0.015817046346198613,-0.059803836816206886,0.0003163409269239723,-0.013545617064605036
0.10528419439999999,-0.5647061335999999,10.164710404799997,0.02399827721492203,-0.022907446432425576,0.015271630954950384,-0.0640455883473603,0.0003054326190990077,-0.011380119140464056
0.12442677519999999,-0.5359922624,10.1072826624,0.02399827721492203,-0.022907446432425576,0.019634954084936207,-0.06116036845118692,0.00039269908169872416,-0.013616045511194668
0.1531406464,-0.5359922624,10.2029955664,0.019089538693687978,-0.019634954084936207,0.016907877128695067,-0.0605277526838244,0.00033815754257390134,-0.016800358812792116
0.12442677519999999,-0.5168496816,10.2029955664,0.023452861823673805,-0.02945243112740431,0.010362892433716332,-0.058575948384992235,0.00020725784867432664,-0.013496318593586833
0.14356935599999998,-0.5742774239999999,10.1072826624,0.02181661564992912,-0.022907446432425576,0.012544553998709244,-0.06548789795735317,0.0002508910799741849,-0.01582230462627636
0.1339980656,-0.5168496816,10.212566856799999,0.028361600344907856,-0.02672535417116317,0.012544553998709244,-0.05846823355335675,0.0002508910799741849,-0.01445947859539514
0.12442677519999999,-0.5551348432,10.116853952799998,0.027816184953659628,-0.0272707695624114,0.013089969389957472,-0.06335051315031663,0.00026179938779914946,-0.013526494802902057
0.11485548479999999,-0.5264209719999999,10.155139114399999,0.017998707911191524,-0.026179938779914945,0.014180800172453928,-0.05986184979286691,0.0002836160034490786,-0.012589699127923048
0.1339980656,-0.5264209719999999,10.145567823999999,0.025089107997418487,-0.02399827721492203,0.016362461737446838,-0.059874978377342895,0.00032724923474893676,-0.014621779179263085
0.14356935599999998,-0.5551348432,10.1742816952,0.0272707695624114,-0.02672535417116317,0.008726646259971648,-0.0629859680519411,0.00017453292519943296,-0.01561043094070434
0.12442677519999999,-0.5455635528,10.1742816952,0.025634523388666716,-0.02945243112740431,0.017998707911191524,-0.06196456233513689,0.0003599741582238305,-0.013490783288598516
0.1339980656,-0.5359922624,10.097711372,0.02672535417116317,-0.02999784651865254,0.0136353847812057,-0.061356778848179534,0.000272707695624114,-0.014660379820648675
0.1531406464,-0.5455635528,10.193424275999998,0.027816184953659628,-0.025634523388666716,0.014180800172453928,-0.06177466984945159,0.0002836160034490786,-0.016644542219868497
0.1339980656,-0.5551348432,10.1359965336,0.022362031041177347,-0.02672535417116317,0.015271630954950384,-0.06322142716709686,0.0003054326190990077,-0.01468718189846182
0.12442677519999999,-0.5359922624,10.1838529856,0.017998707911191524,-0.02127120025868089,0.010362892433716332,-0.06067266560873699,0.00020725784867432664,-0.013628028401898676
0.14356935599999998,-0.5455635528,10.1264252432,0.025634523388666716,-0.022362031041177347,0.019089538693687978,-0.06211514193206698,0.0003817907738737596,-0.01571939318325884
0.1339980656,-0.5264209719999999,10.1838529856,0.031088677301148997,-0.02127120025868089,0.012544553998709244,-0.05959859970971525,0.0002508910799741849,-0.01444752808879571
0.14356935599999998,-0.5455635528,10.164710404799997,0.014180800172453928,-0.026179938779914945,0.014180800172453928,-0.06195811428212805,0.0002836160034490786,-0.015882970915387144
0.14356935599999998,-0.5359922624,10.1838529856,0.020725784867432664,-0.027816184953659628,0.011999138607461015,-0.060800947308758575,0.00023998277214922032,-0.015725205262552142
0.1339980656,-0.5551348432,10.2029955664,0.028361600344907856,-0.019089538693687978,0.017453292519943295,-0.06266086792383245,0.00034906585039886593,-0.014470572833018554
0.1339980656,-0.5072783912,10.2317094376,0.02999784651865254,-0.02399827721492203,0.015271630954950384,-0.05723728568094086,0.0003054326190990077,-0.0144000904152726
0.12442677519999999,-0.49770710079999997,10.1359965336,0.027816184953659628,-0.025089107997418487,0.014726215563702155,-0.05671439934328084,0.0002945243112740431,-0.013504123471647573
0.14356935599999998,-0.5455635528,10.155139114399999,0.02454369260617026,-0.025634523388666716,0.009272061651219876,-0.06200522537652258,0.00018544123302439752,-0.015695044169185265
0.12442677519999999,-0.5455635528,10.116853952799998,0.032179508083645454,-0.028361600344907856,0.0136353847812057,-0.06229097155149484,0.000272707695624114,-0.013441695687968614
0.1722832272,-0.5455635528,10.116853952799998,0.022362031041177347,-0.017453292519943295,0.011453723216212788,-0.06207716871812553,0.00022907446432425576,-0.019045686914271723
0.16271193679999998,-0.5168496816,10.193424275999998,0.02454369260617026,-0.028361600344907856,0.017998707911191524,-0.05860893386833349,0.0003599741582238305,-0.01778553875056566
0.10528419439999999,-0.5168496816,10.212566856799999,0.028361600344907856,-0.022362031041177347,0.017453292519943295,-0.05838271242000903,0.00034906585039886593,-0.011242158551606103
0.1722832272,-0.5168496816,10.1742816952,0.02127120025868089,-0.02672535417116317,0.014726215563702155,-0.05868590105034225,0.0002945243112740431,-0.0189602756018149
0.12442677519999999,-0.5359922624,10.1838529856,0.028361600344907856,-0.025089107997418487,0.0136353847812057,-0.06074749660041625,0.000272707695624114,-0.013424915710197837
0.11485548479999999,-0.5264209719999999,10.212566856799999,0.02999784651865254,-0.02454369260617026,0.012544553998709244,-0.059496638555208,0.0002508910799741849,-0.012281936866867852
0.1531406464,-0.5264209719999999,10.193424275999998,0.02127120025868089,-0.026179938779914945,0.012544553998709244,-0.059639339950159465,0.0002508910799741849,-0.016774516482816356
0.14356935599999998,-0.5264209719999999,10.164710404799997,0.027816184953659628,-0.026179938779914945,0.014180800172453928,-0.059806065612547095,0.0002836160034490786,-0.015617317641075155
0.16271193679999998,-0.5072783912,10.2029955664,0.02999784651865254,-0.027816184953659628,0.013089969389957472,-0.0574716111395059,0.00026179938779914946,-0.017662405370915225
0.14356935599999998,-0.5359922624,10.2029955664,0.020725784867432664,-0.028361600344907856,0.0136353847812057,-0.060698794950519844,0.000272707695624114,-0.015695027261814563
0.14356935599999998,-0.5359922624,10.145567823999999,0.017998707911191524,-0.02672535417116317,0.016362461737446838,-0.06100652594308414,0.00032724923474893676,-0.015839352120464032
0.16271193679999998,-0.5359922624,10.193424275999998,0.023452861823673805,-0.023452861823673805,0.014180800172453928,-0.06065895209383115,0.0002836160034490786,-0.0178051525918445
0.1531406464,-0.5264209719999999,10.1742816952,0.023452861823673805,-0.02399827721492203,0.012544553998709244,-0.0597076255411907,0.0002508910799741849,-0.01676400990583556
0.1339980656,-0.5264209719999999,10.212566856799999,0.02672535417116317,-0.02399827721492203,0.011999138607461015,-0.05948594841353953,0.00023998277214922032,-0.014490832197551942
0.1531406464,-0.5359922624,10.116853952799998,0.025634523388666716,-0.020725784867432664,0.012544553998709244,-0.06106027770694126,0.0002508910799741849,-0.016817882618710454
0.16271193679999998,-0.5168496816,10.1838529856,0.02454369260617026,-0.02127120025868089,0.0136353847812057,-0.05852442972231479,0.000272707695624114,-0.017802659612503144
0.12442677519999999,-0.5264209719999999,10.1838529856,0.032724923474893676,-0.02454369260617026,0.01090830782496456,-0.05966274055972604,0.0002181661564992912,-0.013340078062223733
0.1339980656,-0.5264209719999999,10.1742816952,0.02945243112740431,-0.025089107997418487,0.013089969389957472,-0.05972900582452763,0.00026179938779914946,-0.014493723587778659
0.1339980656,-0.5455635528,10.1072826624,0.022362031041177347,-0.025634523388666716,0.014726215563702155,-0.06229586888345876,0.0002945243112740431,-0.01473079769799274
0.12442677519999999,-0.5455635528,10.145567823999999,0.028361600344907856,-0.026179938779914945,0.014180800172453928,-0.06207382549903995,0.0002836160034490786,-0.013476818064267464
0.11485548479999999,-0.5072783912,10.2029955664,0.025089107997418487,-0.022907446432425576,0.01090830782496456,-0.05737539986448971,0.0002181661564992912,-0.012391409288987458
0.1339980656,-0.5551348432,10.164710404799997,0.025634523388666716,-0.022907446432425576,0.0136353847812057,-0.0629698360491753,0.000272707695624114,-0.014580445879785405
0.14356935599999998,-0.5072783912,10.222138147199999,0.026179938779914945,-0.023452861823673805,0.014726215563702155,-0.05727966104663365,0.0002945243112740431,-0.015560357943335285
0.12442677519999999,-0.5072783912,10.193424275999998,0.0272707695624114,-0.028361600344907856,0.015271630954950384,-0.05753566529101882,0.0003054326190990077,-0.013435214135463757
0.1531406464,-0.5359922624,10.164710404799997,0.022907446432425576,-0.023452861823673805,0.011999138607461015,-0.06082869251785723,0.00023998277214922032,-0.016790026510181973
0.1339980656,-0.5455635528,10.155139114399999,0.017453292519943295,-0.02454369260617026,0.014726215563702155,-0.06198384509318565,0.0002945243112740431,-0.014755738559736874
0.12442677519999999,-0.5264209719999999,10.155139114399999,0.027816184953659628,-0.028361600344907856,0.015271630954950384,-0.059904610359540776,0.0003054326190990077,-0.013475712559614784
0.1531406464,-0.5742774239999999,10.1264252432,0.025634523388666716,-0.020725784867432664,0.0136353847812057,-0.06532245360991151,0.000272707695624114,-0.016797985282525747
0.10528419439999999,-0.5264209719999999,10.164710404799997,0.028361600344907856,-0.02181661564992912,0.018544123302439753,-0.059720544479199375,0.00037088246604879505,-0.011296986829935452
0.18185451759999996,-0.5838487144,10.164710404799997,0.022362031041177347,-0.02127120025868089,0.013089969389957472,-0.0661646840479312,0.00026179938779914946,-0.020027107069185552
0.1531406464,-0.5359922624,10.145567823999999,0.023452861823673805,-0.02454369260617026,0.014726215563702155,-0.06096376537641028,0.0002945243112740431,-0.016811767455067506
0.1339980656,-0.5264209719999999,10.1838529856,0.02454369260617026,-0.027816184953659628,0.017998707911191524,-0.05972688140973683,0.0003599741582238305,-0.014575809788817293
0.1339980656,-0.5551348432,10.1838529856,0.02672535417116317,-0.019634954084936207,0.013089969389957472,-0.06278840723058499,0.00026179938779914946,-0.014530801643507622
0.10528419439999999,-0.49770710079999997,10.193424275999998,0.03436116964863836,-0.022362031041177347,0.0136353847812057,-0.056344705095277337,0.000272707695624114,-0.011147766525148884
0.1339980656,-0.5168496816,10.1742816952,0.027816184953659628,-0.02454369260617026,0.011999138607461015,-0.05864314048366839,0.00023998277214922032,-0.014526518935921683
0.12442677519999999,-0.5551348432,10.1359965336,0.026179938779914945,-0.025089107997418487,0.016362461737446838,-0.06318935674209147,0.00032724923474893676,-0.013532072002831056
0.11485548479999999,-0.5359922624,10.1742816952,0.031634092692397225,-0.025634523388666716,0.02127120025868089,-0.06081476678402074,0.0004254240051736178,-0.012297529176382986
0.1339980656,-0.5264209719999999,10.1838529856,0.032724923474893676,-0.02399827721492203,0.011453723216212788,-0.05965205041805757,0.00022907446432425576,-0.014415457663790314
0.16271193679999998,-0.5455635528,10.1072826624,0.026179938779914945,-0.019634954084936207,0.012544553998709244,-0.06217827732510564,0.0002508910799741849,-0.017905976281592993
0.16271193679999998,-0.5072783912,10.269994599199999,0.022907446432425576,-0.022362031041177347,0.011453723216212788,-0.05699393991786171,0.00022907446432425576,-0.01768262674316921
0.1339980656,-0.5168496816,10.1742816952,0.018544123302439753,-0.023452861823673805,0.013089969389957472,-0.05862176020033146,0.00026179938779914946,-0.014708251344285592
0.1531406464,-0.5359922624,10.1742816952,0.0272707695624114,-0.0272707695624114,0.014180800172453928,-0.06084683720902614,0.0002836160034490786,-0.01668833539654124
0.10528419439999999,-0.5072783912,10.193424275999998,0.025634523388666716,-0.02454369260617026,0.016362461737446838,-0.05746083429933956,0.00032724923474893676,-0.0113182629984141
0.14356935599999998,-0.5264209719999999,10.155139114399999,0.02181661564992912,-0.023452861823673805,0.019089538693687978,-0.05980839908452459,0.0003817907738737596,-0.015750099660791196
0.11485548479999999,-0.5359922624,10.164710404799997,0.019634954084936207,-0.02181661564992912,0.018544123302439753,-0.06079662209285184,0.00037088246604879505,-0.012544840978004733
0.12442677519999999,-0.5359922624,10.164710404799997,0.023452861823673805,-0.02454369260617026,0.016362461737446838,-0.060850072801194165,0.00032724923474893676,-0.013547380630788875
0.16271193679999998,-0.5168496816,10.164710404799997,0.025089107997418487,-0.027816184953659628,0.015817046346198613,-0.05876195374844686,0.0003163409269239723,-0.017826307524552092
0.11485548479999999,-0.5264209719999999,10.193424275999998,0.02672535417116317,-0.025634523388666716,0.015271630954950384,-0.059628649808491,0.0003054326190990077,-0.01237018027334083
0.14356935599999998,-0.5359922624,10.1838529856,0.022907446432425576,-0.020180369476184436,0.015817046346198613,-0.06065128532540006,0.0003163409269239723,-0.015682444695878282
0.1339980656,-0.5455635528,10.155139114399999,0.02672535417116317,-0.023452861823673805,0.017453292519943295,-0.06196246480984872,0.00034906585039886593,-0.014574006151372963
0.14356935599999998,-0.5264209719999999,10.164710404799997,0.027816184953659628,-0.030543261909900768,0.014726215563702155,-0.059891586745894815,0.0002945243112740431,-0.015617317641075155
0.12442677519999999,-0.5359922624,10.145567823999999,0.022907446432425576,-0.022362031041177347,0.016907877128695067,-0.06092100480973642,0.00033815754257390134,-0.013584423060773483
0.16271193679999998,-0.5647061335999999,10.164710404799997,0.028361600344907856,-0.02454369260617026,0.014726215563702155,-0.06407765877236568,0.0002945243112740431,-0.017757592732291726
0.14356935599999998,-0.5359922624,10.1264252432,0.018544123302439753,-0.022362031041177347,0.015817046346198613,-0.06103512602594266,0.0003163409269239723,-0.015859181406126265
0.1339980656,-0.5359922624,10.212566856799999,0.025089107997418487,-0.020180369476184436,0.014180800172453928,-0.06048217977442217,0.0002836160034490786,-0.014522172752490368
0.11485548479999999,-0.5072783912,10.1838529856,0.0059995693037305075,-0.032179508083645454,0.013089969389957472,-0.05766396035279136,0.00026179938779914946,-0.012789718782435214
0.11485548479999999,-0.5359922624,10.193424275999998,0.028361600344907856,-0.020725784867432664,0.016907877128695067,-0.06060550138548883,0.00033815754257390134,-0.01233748069549152
0.16271193679999998,-0.6125625856,10.1359965336,0.031088677301148997,-0.025089107997418487,0.019634954084936207,-0.06966030907286844,0.00039269908169872416,-0.017750835349363645
0.1531406464,-0.5168496816,10.1742816952,0.02399827721492203,-0.02672535417116317,0.016362461737446838,-0.05868590105034225,0.00032724923474893676,-0.01675414820388672
0.14356935599999998,-0.5551348432,10.164710404799997,0.026179938779914945,-0.02672535417116317,0.013089969389957472,-0.06304466704085455,0.00026179938779914946,-0.015646966417465026
0.1531406464,-0.5359922624,10.145567823999999,0.032724923474893676,-0.02999784651865254,0.011453723216212788,-0.06107066679309493,0.00022907446432425576,-0.016630035046703597
0.14356935599999998,-0.5359922624,10.241280727999998,0.038179077387375956,-0.022362031041177347,0.014180800172453928,-0.0603567804479926,0.0002836160034490786,-0.01529292371438332
0.09571290399999999,-0.4881358104,10.222138147199999,0.016907877128695067,-0.031088677301148997,0.013089969389957472,-0.05528848943373747,0.00026179938779914946,-0.010385627286458237
0.16271193679999998,-0.5647061335999999,10.145567823999999,0.008181230868723419,-0.025634523388666716,0.014180800172453928,-0.06421878570767926,0.0002836160034490786,-0.018187569209047717
0.14356935599999998,-0.5072783912,10.212566856799999,0.031634092692397225,-0.018544123302439753,0.014180800172453928,-0.057236614501139364,0.0002836160034490786,-0.015468481678146215
0.14356935599999998,-0.5455635528,10.164710404799997,0.049632800603588746,-0.02454369260617026,0.019089538693687978,-0.06192604385712266,0.0003817907738737596,-0.015188111706936904
0.11485548479999999,-0.5455635528,10.0594262104,0.10362892433716332,0.020180369476184436,0.015271630954950384,-0.06169129781798898,0.0003054326190990077,-0.011032825124585885
0.0861416136,-0.38285161599999995,10.193424275999998,0.12599095537834065,0.008181230868723419,0.06654067773228381,-0.04285851042529322,0.0013308135546456763,-0.0072073179436417095
0.1531406464,-0.5934200047999999,10.260423308799998,0.14835298641951802,0.015271630954950384,0.017453292519943295,-0.06590189663193435,0.00034906585039886593,-0.01416570231939518
-0.0669990328,-0.5264209719999999,10.2987084704,0.22525655658551816,0.05672320068981571,-0.03599741582238305,-0.057411044172137986,-0.000719948316447661,0.01186004511155295
0.0765703232,-0.22971096959999998,10.097711372,0.2121665871955607,0.031088677301148997,-0.05126904677733343,-0.0254543884362908,-0.0010253809355466686,-0.004528528246524854
0.0095712904,-0.057427742399999995,10.222138147199999,0.2945243112740431,0.05181446216858166,-0.04199698512611356,-0.00542209684947031,-0.0008399397025222712,0.004699739073705073
-0.21056838879999998,0.028713871199999998,10.068997500799998,0.5017821599483697,0.04363323129985824,0.02127120025868089,0.004123022599591034,0.0004254240051736178,0.03379535466762518
-0.12442677519999999,0.46899322959999995,9.9924271776,0.3981532356112064,-0.012544553998709244,-0.09599310885968812,0.05349808060310148,-0.0019198621771937625,0.022056441672684737
-0.1722832272,0.5168496816,10.097711372,0.26452646475539054,0.05890486225480862,-0.02454369260617026,0.05975689322222594,-0.0004908738521234052,0.0247084351204563
-0.2009970984,0.6412764567999999,10.1838529856,0.23834652597547562,0.03381575425739013,-0.001090830782496456,0.07272585941208942,-2.181661564992912e-05,0.02724072111149533
-0.22971096959999998,0.4881358104,10.0402836296,0.3239767424014474,0.1347176016383123,0.03599741582238305,0.05830844821458247,0.000719948316447661,0.03253178261980593
-0.4019941968,1.0336993632,10.1742816952,0.31306843457648287,0.15435255572324852,0.009817477042468103,0.1190513420318767,0.00019634954084936208,0.05115714025451461
-0.5838487144,1.2155538808,9.858429112,0.23507403362798626,0.13799009398580167,-0.001090830782496456,0.14328754268130015,-2.181661564992912e-05,0.07188487707890039
-0.71784678,1.4069796888,9.858429112,0.19634954084936207,0.12217304763960307,0.000545415391248228,0.16484088027625454,1.090830782496456e-05,0.08630925902749473
-0.9092725879999999,1.2825529135999998,9.925428144799998,0.15817046346198613,0.1189005552921137,0.012544553998709244,0.1495884071867446,0.0002508910799741849,0.10692727504730529
-0.8422735551999999,1.3686945272,9.8010013696,0.10090184738092217,0.05345070834232634,-0.004363323129985824,0.16004470604826104,-8.726646259971648e-05,0.09927389722698755
-0.7369893607999999,1.4644074311999997,9.647860723199999,0.08672104720846825,0.033270338866141905,-0.010362892433716332,0.1732681344127453,-0.00020725784867432664,0.0880797054008394
-0.9475577495999999,1.4452648504,9.877571692799998,0.07690357016600015,0.02672535417116317,0.03545200043113482,0.16701030877427114,0.0007090400086226964,0.10995219646745151
-0.8901300072,1.5601203352,9.829715240799999,0.038724492778624185,-0.003817907738737596,0.025634523388666716,0.18029434191886642,0.0005126904677733343,0.10297265956572517
-0.9762716208,1.387837108,9.848857821600001,0.04581489286485115,-0.023452861823673805,0.02454369260617026,0.15995908317817525,0.0004908738521234052,0.113016894054313
-0.9571290399999999,1.5026925928,9.829715240799999,0.1227184630308513,0.044178646691106466,0.05399612373357457,0.1746989968411926,0.0010799224746714914,0.11236408743477905
-0.9475577495999999,1.6558332392,9.762716207999999,0.10090184738092217,0.023452861823673805,-0.003272492347489368,0.19298379773097485,-6.544984694978737e-05,0.11129998523188407
-0.9284151687999999,1.7611174335999997,9.829715240799999,0.03763366199612773,-0.002181661564992912,-0.011453723216212788,0.2031071142080682,-0.00022907446432425576,0.10696747779570637
-1.0145567824,1.5601203352,9.753144917599998,0.105265170510908,0.04908738521234052,0.025634523388666716,0.18272379172657702,0.0005126904677733343,0.11935765668706752
-1.0719845248,1.7036896912,9.8201439504,0.09981101659842571,0.004908738521234052,0.015817046346198613,0.1969409739435208,0.0003163409269239723,0.12473345668612694
-1.0145567824,1.7324035624,9.829715240799999,0.15271630954950383,0.04854196982109229,0.0545415391248228,0.20085639902363234,0.001090830782496456,0.11907307799300756
-1.0911271056,1.7132609816,9.705288465599999,0.23071071049800043,0.10362892433716332,0.010362892433716332,0.20225519077081724,0.00020725784867432664,0.13087647889994825
-1.2921242039999998,1.9525432416,9.6957171752,0.3768820353525255,0.11999138607461016,0.010362892433716332,0.23007285764739635,0.00020725784867432664,0.15625158645641804
-1.1198409768,2.3162522768,9.619146851999998,0.35288375813760353,0.06708609312353205,0.007635815477475192,0.27209188917685684,0.00015271630954950385,0.13606487296836142
-1.3208380752,2.3928225999999997,9.5042913672,0.2143482487605536,0.12108221685710661,-0.003817907738737596,0.2849979864891316,-7.635815477475192e-05,0.1577083588626199
-1.3495519463999999,2.4789642136,9.3511507208,0.2187115718905394,0.07635815477475191,0.02999784651865254,0.29844527187254044,0.0005999569303730507,0.16311781637780248
-1.4644074311999997,2.4981067944,9.3990071728,0.14017175555079459,0.050178215994836975,-0.004363323129985824,0.29866744079932467,-8.726646259971648e-05,0.17400900648557552
-1.5314064639999998,2.6703900216,9.389435882399999,0.1619883712007237,0.07744898555724837,0.022362031041177347,0.31903693022137386,0.00044724062082354693,0.1814902071798178
-1.5984054967999999,2.6991038927999997,9.427721044,0.11617347833587256,0.09272061651219876,0.009817477042468103,0.3213397563696466,0.00019634954084936208,0.18742708818034826
-1.5601203352,2.6703900216,9.198010074399999,0.11344640137963143,0.044178646691106466,-0.004363323129985824,0.3246500266156848,-8.726646259971648e-05,0.1872556637721462
-1.5505490447999999,2.8522445392,9.111868460799998,0.09981101659842571,0.013089969389957472,0.008726646259971648,0.3478852754783793,0.00017453292519943296,0.18643982085240401
-1.7324035624,2.6512474407999997,9.3415794304,0.0545415391248228,0.02999784651865254,-0.012544553998709244,0.3174789671600244,-0.0002508910799741849,0.20337739964260204
-1.6654045296,2.7661029256,9.312865559199999,0.1189005552921137,0.04199698512611356,-0.007635815477475192,0.3316720938001285,-0.00015271630954950385,0.19687970650652123
-1.8281164663999998,2.7948167967999997,9.236295236,0.12435470920459599,0.06926775468852496,-0.007635815477475192,0.33806415873005113,-0.00015271630954950385,0.21698226619915253
-1.67497582,2.87138712,9.0735832992,0.17562375598192942,0.05126904677733343,0.0059995693037305075,0.35221031435284994,0.00011999138607461016,0.20307531389707043
-1.6462619487999999,3.0436703471999995,9.035298137599998,0.12326387842209953,0.0703585854710214,-0.00272707695624114,0.37371581978361623,-5.45415391248228e-05,0.1983486924373854
-1.9046867896,2.9383861527999997,9.006584266399999,0.11999138607461016,0.05781403147231216,0.009817477042468103,0.36251008677867125,0.00019634954084936208,0.22970503701748535
-2.0291135648,3.2542387359999996,9.111868460799998,0.14562590946327686,0.0409061543436171,0.013089969389957472,0.39387824178620134,0.00026179938779914946,0.23973773835042567
-1.9334006607999998,3.1776684127999997,9.035298137599998,0.08890270877346117,-0.05726861608106394,-0.017998707911191524,0.38640781581163836,-0.0003599741582238305,0.22999289440969894
-2.1439690496,3.1968109935999998,8.8821574912,0.11235557059713497,0.04636030825609938,0.03381575425739013,0.39679873468768473,0.0006763150851478027,0.2581177923661533
-1.9716858223999998,3.2542387359999996,8.930013943199999,0.02945243112740431,-0.02890701573615608,-0.000545415391248228,0.39988427557212824,-1.090830782496456e-05,0.23497051191387888
-1.962114532,3.1010980895999998,8.8343010392,0.06490443155853913,-0.031634092692397225,0.033270338866141905,0.38623128164158504,0.0006654067773228382,0.23799061784799863
-2.0291135648,3.3690942207999997,9.0161555568,0.030543261909900768,-0.017998707911191524,0.004363323129985824,0.4094344296783857,8.726646259971648e-05,0.23868920804492555
-2.1343977592,3.1680971224,9.0257268472,-0.001636246173744684,-0.0703585854710214,-0.001636246173744684,0.38545001106216964,-3.272492347489368e-05,0.2515382376361351
-2.0291135648,3.2350961552,8.939585233599999,0.044178646691106466,-0.008181230868723419,0.004908738521234052,0.39772761143325897,9.817477042468104e-05,0.2418286527356459
-2.1056838879999997,3.2542387359999996,9.044869428,0.038724492778624185,-0.02127120025868089,0.017453292519943295,0.39534590000896414,0.00034906585039886593,0.24787683047986117
-2.0673987264,3.2446674455999998,8.9204426528,-0.014180800172453928,-0.02945243112740431,-0.015271630954950384,0.3991835805332014,-0.0003054326190990077,0.2454640082977468
-2.0769700168,3.3595229304,8.930013943199999,0.025634523388666716,-0.04581489286485115,0.019634954084936207,0.4114338326293188,0.00039269908169872416,0.2461224189842719
-1.9908284031999999,3.2350961552,8.987441685599999,0.008181230868723419,-0.010362892433716332,0.007090400086226964,0.3957312000235024,0.0001418080017245393,0.23562231466616462
-2.0003996936,3.1393832511999995,8.8821574912,0.019634954084936207,-0.009817477042468103,0.012544553998709244,0.38912491761701634,0.0002508910799741849,0.24014985628945545
-2.1056838879999997,3.2733813167999997,8.949156524,0.04199698512611356,-0.013089969389957472,0.023452861823673805,0.40156896813929993,0.0004690572364734761,0.2500377050087447
-2.1152551784,3.1968109935999998,9.006584266399999,0.02181661564992912,-0.028361600344907856,0.008726646259971648,0.39028187715197243,0.00017453292519943296,0.25002724719102387
-2.1056838879999997,3.2733813167999997,8.9587278144,0.02181661564992912,-0.020180369476184436,0.004363323129985824,0.4010349820490417,8.726646259971648e-05,0.24941461605224358
-2.0865413071999996,3.2829526072,8.987441685599999,0.022362031041177347,-0.022907446432425576,-0.02127120025868089,0.4008780065790097,-0.0004254240051736178,0.24647487818486255
-2.1056838879999997,3.1489545415999998,8.853443619999998,0.06544984694978735,-0.03545200043113482,-0.16307920198322018,0.39088985190016123,-0.003261584039664404,0.2538931824779263
-2.3736800191999996,3.3786655112,8.872586200799999,-0.15544338650574496,-0.007635815477475192,-0.050178215994836975,0.4167852775193466,-0.0010035643198967395,0.27769544217003317
-2.2779671151999996,2.6416761504,9.0831545896,-0.284706834231575,-0.020725784867432664,0.022362031041177347,0.3239166808306201,0.00044724062082354693,0.2652147286601819
-2.1822542112,2.9862426047999997,9.2650091072,-0.464148497952242,-0.1499892325932627,-0.07363107781851078,0.3543574185996349,-0.0014726215563702157,0.24361607927163964
-2.0769700168,2.6608187312,9.245866526399999,-0.3108867730114899,-0.18816830998063866,-0.015817046346198613,0.31741205728056726,-0.0003163409269239723,0.2375435781856431
-2.0195422744,2.4023938904,9.245866526399999,-0.23343778745424157,-0.2514364953654331,-0.07853981633974483,0.2863783798369871,-0.0015707963267948967,0.23416353874837686
-1.9142580799999998,2.2301106632,9.360722011199998,-0.2841614188403268,-0.3021601267515183,-0.14126258633329106,0.26208601620129424,-0.0028252517266658212,0.21945133522918617
-1.722832272,2.2109680824,9.4851487864,-0.30543261909900765,-0.24052818754046854,-0.06654067773228381,0.25771020284923374,-0.0013308135546456763,0.19464204554220474
-1.6366906583999998,2.0673987264,9.6000042712,-0.2716168648416175,-0.18435040224190105,0.03436116964863836,0.23945197085711642,0.0006872233929727672,0.18392372450729982
-1.67497582,1.9046867896,9.5042913672,-0.3288854809226815,-0.13853550937704992,0.04199698512611356,0.22392716276577243,0.0008399397025222712,0.18962940360850852
-1.4739787215999998,1.4931213023999999,9.6574320136,-0.5350524988145117,-0.24489151067045437,-0.11399181677087965,0.17097668564781113,-0.002279836335417593,0.1610631163392586
-1.2442677519999998,1.0528419439999999,9.7914300792,-0.6403176693254197,-0.3092505268377453,-0.22143864884678055,0.11668380865922004,-0.0044287729769356115,0.13147179018271402
-1.1868400095999998,0.7657032319999999,9.925428144799998,-0.4265148359561143,-0.2530727415391778,-0.025089107997418487,0.08326738381502422,-0.0005017821599483697,0.12761621479827293
-1.0336993632,0.5838487144,10.1359965336,-0.5165083755120718,-0.33052172709642613,-0.08835729338221293,0.059455386746483,-0.0017671458676442587,0.10614630452241747
-0.7944171031999999,0.4019941968,10.145567823999999,-0.3425208657038872,-0.34633877344262476,-0.038179077387375956,0.03859222419823035,-0.0007635815477475192,0.08276131446521785
-0.5934200047999999,-0.047856451999999994,9.9445707256,-0.385063266221249,-0.3948807432637171,-0.10690141668465268,-0.013254131983368141,-0.002138028333693054,0.06075092926686505
-0.2009970984,-0.3637090351999999,9.9828558872,-0.20453077171808548,-0.5459608066394762,-0.03490658503988659,-0.05243193515119803,-0.0006981317007977319,0.01904491446315062
-0.0669990328,-0.3158525832,10.212566856799999,-0.22089323345553233,-0.47614763655970305,-0.07963064712224129,-0.04476188847725175,-0.0015926129424448257,0.0031845138120850866
0.3158525832,-0.39242290639999994,10.145567823999999,-0.15544338650574496,-0.42215151282612845,-0.08453938564347534,-0.05257523594215075,-0.0016907877128695067,-0.03868327182459477
0.6029912951999999,-0.44027935839999993,10.2029955664,-0.14453507868078042,-0.377972866135022,-0.056177785298567484,-0.05682612500419672,-0.0011235557059713498,-0.07041442611316168
0.861416136,-0.7944171031999999,9.9924271776,-0.10308350894591509,-0.4461497900410505,-0.02181661564992912,-0.09965580576960292,-0.0004363323129985824,-0.10025420224473917
0.9475577495999999,-0.7369893607999999,10.145567823999999,-0.09272061651219876,-0.3256129885751921,-0.02454369260617026,-0.08947709942900862,-0.0004908738521234052,-0.1082531155010321
1.1964112999999998,-0.7561319415999999,10.1359965336,-0.07690357016600015,-0.3436116964863836,0.004908738521234052,-0.09206053338696113,9.817477042468104e-05,-0.13577384657448438
1.4931213023999999,-0.8135596839999999,10.1072826624,-0.07363107781851078,-0.36979163526629855,-0.008726646259971648,-0.09928700746996257,-0.00017453292519943296,-0.16897646549609954
1.6271193679999998,-0.861416136,10.164710404799997,0.019089538693687978,-0.2596177262341565,0.05945027764605685,-0.10196851493580317,0.001189005552921137,-0.1808766947130523
2.0673987264,-0.861416136,9.954142015999999,-0.20398535632683726,-0.44724062082354693,-0.050723631386085204,-0.10768524711022476,-0.001014472627721704,-0.23781011444343894
2.0865413071999996,-0.9092725879999999,10.021141048799999,-0.105265170510908,-0.34797501961636945,0.015817046346198613,-0.11051152106089074,0.0003163409269239723,-0.23636211009270902
2.249253244,-1.1676974288,9.705288465599999,-0.1538071403320003,-0.3637920659625681,-0.06490443155853913,-0.1443422760409575,-0.0012980886311707827,-0.26217437975858787
2.5938196984,-1.0815558152,9.7818587888,-0.09708393964218458,-0.3097959422289935,0.007090400086226964,-0.1322604796345639,0.0001418080017245393,-0.29720520867753114
2.7373890544,-1.3304093656,10.04985492,-0.09326603190344698,-0.32015883466270983,-0.03981532356112064,-0.1570955617119179,-0.0007963064712224129,-0.3040464008818714
2.87138712,-1.0336993632,10.222138147199999,0.02672535417116317,-0.23725569519297918,0.009272061651219876,-0.12013672967904801,0.00018544123302439752,-0.311761642346897
3.0436703471999995,-1.4069796888,9.676574594399998,0.0272707695624114,-0.27216228023286576,0.017998707911191524,-0.1707916932709894,0.0003599741582238305,-0.3452582919343672
3.1010980895999998,-1.3399806559999998,9.638289432799999,0.02399827721492203,-0.28197975727533386,-0.0059995693037305075,-0.1638251119108896,-0.00011999138607461016,-0.35305322772258285
3.3690942207999997,-1.1006983959999999,9.7914300792,-0.03381575425739013,-0.2699806186678729,-0.022362031041177347,-0.13357056548043678,-0.00044724062082354693,-0.3782070948515127
3.6753755135999997,-1.2825529135999998,9.5904329808,0.04363323129985824,-0.2394373567579721,0.05508695451607103,-0.15703527695407637,0.0011017390903214205,-0.41513228139019687
3.5030922863999994,-1.1485548479999999,9.7244310464,-0.02890701573615608,-0.1925316331106245,-0.04145156973486533,-0.1384938442913554,-0.0008290313946973066,-0.3942595189317598
3.8093735792,-1.1964112999999998,9.4181497536,0.0,-0.23561944901923448,-0.004908738521234052,-0.14941115605923083,-9.817477042468104e-05,-0.43725950700335586
3.9338003543999998,-1.1772687192,9.6574320136,-0.04308781590861001,-0.21162117180431245,0.025634523388666716,-0.14315233612631767,0.0005126904677733343,-0.4411543363353418
3.9625142255999997,-1.3304093656,9.580861690399999,0.03763366199612773,-0.1712604328519436,0.011453723216212788,-0.16146876103714655,0.00022907446432425576,-0.4447971573865153
4.077369710399999,-1.1485548479999999,9.4660062056,-0.03490658503988659,-0.12980886311707826,-0.02181661564992912,-0.14090720423657319,-0.0004363323129985824,-0.4637171633105762
4.1347974528,-1.3782658176,9.322436849599999,0.04581489286485115,-0.18216874067690814,0.008726646259971648,-0.17176876530692792,0.00017453292519943296,-0.4729033617154784
4.1252261624,-1.1485548479999999,9.5042913672,0.026179938779914945,-0.12490012459584421,0.004908738521234052,-0.14025900888085735,9.817477042468104e-05,-0.4657142374496791
4.2879380992,-1.3495519463999999,9.360722011199998,0.031634092692397225,-0.16907877128695067,0.02454369260617026,-0.16739205148530004,0.0004908738521234052,-0.48716123370780445
4.450650035999999,-1.1676974288,9.379864591999999,0.028361600344907856,-0.17453292519943295,0.03763366199612773,-0.1453454800266624,0.0007526732399225546,-0.5037170474142583
4.555934230399999,-1.3591232368,9.1022971704,-0.031634092692397225,-0.18653206380689397,-0.016362461737446838,-0.17350527562570778,-0.00032724923474893676,-0.527362878450647
4.555934230399999,-1.3208380752,9.09272588,-0.04526947747360292,-0.20616701789183017,-0.011999138607461015,-0.16934395414720457,-0.00023998277214922032,-0.5283760806077311
4.6612184247999995,-1.2538390423999999,9.2745803976,0.0272707695624114,-0.2067124332830784,0.044724062082354694,-0.1580353742688207,0.0008944812416470939,-0.528976821476537
4.7665026192,-1.4165509792,9.198010074399999,-0.002181661564992912,-0.13908092476829814,-0.016907877128695067,-0.17782843468892837,-0.00033815754257390134,-0.5424478062882842
4.747360038399999,-1.2442677519999998,9.064012008799999,0.025634523388666716,-0.15108006337575916,0.008181230868723419,-0.159290327831497,0.00016362461737446838,-0.5479871228833632
4.8909293944,-1.3686945272,8.8630149104,0.004363323129985824,-0.09926560120717749,0.02672535417116317,-0.1775197280446,0.0005345070834232635,-0.5720500535836655
4.9579284272,-1.2729816232,9.1501536224,0.02945243112740431,-0.06981317007977318,-0.001090830782496456,-0.15977291098533228,-2.181661564992912e-05,-0.5638472091565545
4.9674997176,-1.2921242039999998,9.0831545896,-0.012544553998709244,-0.02999784651865254,-0.010362892433716332,-0.16251374907244678,-0.00020725784867432664,-0.5689040298730696
4.9962135888,-1.3399806559999998,8.901300071999998,-0.030543261909900768,-0.03381575425739013,-0.05345070834232634,-0.17188058020673716,-0.001069014166846527,-0.581236162807755
4.9866422984,-1.387837108,9.035298137599998,0.001636246173744684,-0.04254240051736178,-0.020725784867432664,-0.1754834139301708,-0.0004145156973486533,-0.5722252728605086
4.977071007999999,-1.2921242039999998,9.0735832992,-0.001090830782496456,-0.03381575425739013,0.0136353847812057,-0.1627571196435793,0.000272707695624114,-0.5701000441705781
4.9674997176,-1.3208380752,9.09272588,0.023452861823673805,-0.015271630954950384,0.022907446432425576,-0.16560240456324174,0.0004581489286485115,-0.5674901743015808
5.0153561695999995,-1.4261222696,8.7768732968,0.025634523388666716,0.031634092692397225,-0.007635815477475192,-0.18396247804893864,-0.00015271630954950385,-0.5879847845157795
4.881358103999999,-1.1772687192,9.312865559199999,0.44015022073731996,0.4586943440397597,0.10690141668465268,-0.1351040829241576,0.002138028333693054,-0.5408739483681699
4.651647134399999,-0.8997012975999998,9.4181497536,0.6299547768917033,0.3916082509162277,0.2716168648416175,-0.10146084714653238,0.00543233729683235,-0.5112867123716861
4.1826539047999995,-0.9475577495999999,9.2171526552,0.19853120241435498,0.4445135438673058,0.03545200043113482,-0.10867954340049504,0.0007090400086226964,-0.48200769817211453
3.8572300312,-0.7848458127999999,9.437292334399999,0.29888763440402893,0.8203047484373349,-0.05508695451607103,-0.07900249620268124,-0.0011017390903214205,-0.4373788586870489
2.6321048599999997,-0.3445664544,9.9349994352,0.4030619741324405,0.9272061651219876,0.07908523173099306,-0.02155357308125306,0.0015817046346198614,-0.2887018542274835
1.7802600144,-0.28713871199999996,10.097711372,0.09762935503343281,0.7663086247037603,0.1423534171157875,-0.017556849766321006,0.00284706834231575,-0.19798099463377475
1.4261222696,-0.5647061335999999,10.0402836296,0.33597588100890846,1.0564696128478177,0.34633877344262476,-0.04367628762879497,0.0069267754688524955,-0.1548474431119607
0.7752745223999999,-0.11485548479999999,10.2508520184,0.210530341021816,0.9348419805994628,0.11780972450961724,0.0054840496996582545,0.002356194490192345,-0.08236940542226556
0.047856451999999994,0.16271193679999998,10.145567823999999,0.31688634231522045,0.7684902862687533,0.12108221685710661,0.03343872574305966,0.0024216443371421325,0.0008064451709324568
-0.3158525832,0.18185451759999996,10.030712339199999,0.19962203319685143,0.4674209902997314,0.05235987755982989,0.029934362897647677,0.0010471975511965978,0.03997797027443395
-0.8327022648,0.32542387359999997,10.2317094376,-0.08672104720846825,0.5377795757707527,-0.22743821815051107,0.046974530702329584,-0.004548764363010222,0.09130809235903667
-1.1485548479999999,0.19142580799999998,10.1072826624,-0.11181015520588673,0.4908738521234052,-0.20016744858809968,0.03132147989156697,-0.004003348971761993,0.12744694411954094
-1.5696916255999998,0.14356935599999998,9.906285564,-0.21980240267303588,0.6594072080191077,-0.24652775684419906,0.029530691002334745,-0.004930555136883981,0.17575115069575184
-1.9812571127999998,0.0191425808,10.212566856799999,0.06926775468852496,0.34961126579011415,0.038724492778624185,0.009000298800551925,0.0007744898555724837,0.22093937628656724
-1.722832272,0.32542387359999997,10.193424275999998,0.08453938564347534,0.25416357232167425,-0.06599526234103559,0.04155240581748976,-0.0013199052468207118,0.193423773155054
-1.3782658176,0.18185451759999996,9.580861690399999,0.07144941625351786,0.3425208657038872,-0.06490443155853913,0.02846144300083432,-0.0012980886311707827,0.16509508816869706
-2.249253244,-0.0765703232,9.8010013696,0.07308566242726255,0.2716168648416175,-0.022907446432425576,-0.0036285928663153666,-0.0004581489286485115,0.2599274105567068
-2.4215364712,0.23928225999999997,9.7914300792,0.016907877128695067,0.21489366415180183,-0.04526947747360292,0.03221014537919088,-0.0009053895494720585,0.2780755051954717
-2.7661029256,0.2584248408,9.8680004024,0.10581058590215622,0.21380283336930536,-0.033270338866141905,0.03419310664831486,-0.0006654067773228382,0.3151465275212056
-2.4981067944,0.3158525832,9.33200814,-0.02672535417116317,0.13689926320330523,-0.10962849364089383,0.04145326094652461,-0.0021925698728178767,0.29903769716846346
-2.6991038927999997,0.1531406464,9.3990071728,-0.061631939211049765,0.001090830782496456,-0.019089538693687978,0.018690450816617445,-0.0003817907738737596,0.31920021017499306
-3.0915267991999995,0.1722832272,9.6574320136,0.12490012459584421,0.0545415391248228,0.05508695451607103,0.02150934414256443,0.0011017390903214205,0.3574121614217912
-2.8139593776,0.2679961312,9.571290399999999,0.07308566242726255,-0.019634954084936207,0.03436116964863836,0.0316924103230339,0.0006872233929727672,0.3289777117908616
-2.9096722815999994,0.057427742399999995,9.446863624799999,-0.03599741582238305,-0.07526732399225546,-0.02399827721492203,0.0054907268629267765,-0.00047996554429844063,0.34166938273543945
-2.775674216,0.0861416136,9.475577496,-0.01090830782496456,-0.03599741582238305,-0.012544553998709244,0.009711578139920475,-0.0002508910799741849,0.3263104935312252
-3.0053851856,0.0669990328,9.676574594399998,0.0545415391248228,-0.06544984694978735,0.02181661564992912,0.006651189878773312,0.0004363323129985824,0.3461399603320888
-2.9383861527999997,0.1531406464,9.513862657599999,0.011999138607461015,-0.05181446216858166,-0.003817907738737596,0.017428165101399377,-7.635815477475192e-05,0.34346266374443674
-2.9001009911999995,0.22013967919999997,9.676574594399998,0.12599095537834065,-0.08890270877346117,0.08017606251348951,0.024322307221685872,0.0016035212502697902,0.3360608060322482
-2.7373890544,0.29671000239999995,9.437292334399999,0.04145156973486533,-0.24816400301794372,0.006544984694978736,0.03115189372764403,0.00013089969389957473,0.3241685284730886
-2.5076780847999998,0.22013967919999997,9.3990071728,-0.044724062082354694,-0.3839724354387525,-0.03381575425739013,0.019308397672231387,-0.0006763150851478027,0.2978187520897523
-2.3832513096,0.0765703232,9.925428144799998,-0.21762074110804297,-0.38942658935123475,-0.07690357016600015,0.0012072994714820992,-0.001538071403320003,0.2657669362579204
-2.3832513096,-0.0861416136,10.0881400816,-0.11071932442339028,-0.20016744858809968,-0.0272707695624114,-0.013707902170282279,-0.000545415391248228,0.2636609069798428
-2.1726829208,-0.2009970984,9.7914300792,0.025089107997418487,-0.038724492778624185,0.007090400086226964,-0.024278890658819736,0.0001418080017245393,0.2506610181382261
-2.2683958248,-0.1531406464,9.6957171752,0.04636030825609938,0.0681769239060285,0.02945243112740431,-0.016761585217782468,0.0005890486225480862,0.26423675515650175
-2.3353948576,0.0669990328,9.8680004024,-0.010362892433716332,0.05726861608106394,0.001636246173744684,0.008902567570837773,3.272492347489368e-05,0.2660877179212161
-2.3449661479999997,-0.0382851616,9.676574594399998,0.00545415391248228,0.015271630954950384,0.06381360077604267,-0.00423444304034802,0.0012762720155208534,0.272547422537201
-2.3353948576,-0.21056838879999998,9.714859756,-0.1499892325932627,0.06708609312353205,0.02399827721492203,-0.023518803399825948,0.00047996554429844063,0.26734068341797196
-2.4598216327999998,-0.16271193679999998,9.829715240799999,-0.2896155727528091,0.020725784867432664,0.031088677301148997,-0.018560460182103736,0.0006217735460229799,0.2752739638421649
-2.4502503424,-0.3637090351999999,9.6861458848,-0.44178646691106466,-0.016907877128695067,-0.06654067773228381,-0.043339639730977764,-0.0013308135546456763,0.27506890709757503
-2.1439690496,-0.5742774239999999,9.7340023368,-0.9446594576419308,-0.10744683207590092,-0.22416572580302171,-0.06963332362045166,-0.004483314516060434,0.2294945949166856
-1.8664016279999998,-1.7324035624,9.3511507208,-1.435533309765336,-0.28034351110158917,-0.712857916361434,-0.21540827215440136,-0.01425715832722868,0.19392861034963638
-2.2875384056,-2.1726829208,9.7435736272,-1.1584622910112363,-0.3959715740462135,-0.5181446216858165,-0.2591713700496171,-0.01036289243371633,0.23542010683340378
-2.1822542112,-3.2542387359999996,10.3274223416,-0.7957610558311646,-0.33052172709642613,-0.18816830998063866,-0.3562778761789789,-0.003763366199612773,0.21229580874952572
-1.8281164663999998,-3.7040893847999996,9.8010013696,-0.5977752688080579,-0.18162332528565991,0.03763366199612773,-0.4176211592668915,0.0007526732399225546,0.18622885585108437
-1.5122638831999997,-3.7710884175999997,9.236295236,-0.6364997615866821,-0.15653421728824143,0.031088677301148997,-0.4472622763677846,0.0006217735460229799,0.15991338308137398
-1.3208380752,-3.9625142255999997,8.930013943199999,-0.44124105151981646,-0.12490012459584421,-0.03981532356112064,-0.48101389746082984,-0.0007963064712224129,0.14534307908390098
-1.6079767872,-4.555934230399999,9.571290399999999,-0.31034135762024173,-0.014726215563702155,-0.050723631386085204,-0.5093775978604547,-0.001014472627721704,0.16642812812153582
-1.3686945272,-4.6133619728,8.987441685599999,-0.11671889372712078,-0.031088677301148997,0.014180800172453928,-0.5440488439225065,0.0002836160034490786,0.1520247538158254
-1.4165509792,-4.5655055207999995,8.8438723296,-0.16471544815696484,-0.05781403147231216,-0.02999784651865254,-0.5472193656665745,-0.0005999569303730507,0.15877834694024207
-1.3686945272,-4.7760739096,9.0831545896,-0.15762504807073788,-0.05835944686356039,-0.02672535417116317,-0.555866664486667,-0.0005345070834232635,0.14884612752307178
-1.3016954943999999,-4.5750768112,9.111868460799998,-0.05181446216858166,-0.05290529295107811,-0.008181230868723419,-0.5342622569780012,-0.00016362461737446838,0.1444938654837378
-1.2729816232,-4.7090748768,8.977870395199998,-0.0545415391248228,-0.014726215563702155,-0.006544984694978736,-0.5538470425972865,-0.00013089969389957473,0.14207019095336657
-1.2634103328,-4.7665026192,8.939585233599999,0.019634954084936207,-0.037088246604879506,-0.000545415391248228,-0.5620493019410964,-1.090830782496456e-05,0.14255596621377759
-1.2634103328,-4.747360038399999,8.9587278144,0.04745113903859583,-0.037088246604879506,0.017998707911191524,-0.5591222581956284,0.0003599741582238305,0.14299126582917457
-1.2729816232,-4.6995035864,9.006584266399999,0.020725784867432664,-0.025634523388666716,0.002181661564992912,-0.551600284883886,4.363323129985824e-05,0.1432525192619671
-1.2538390423999999,-4.7760739096,8.987441685599999,0.026179938779914945,-0.015817046346198613,0.008181230868723419,-0.5600482023508329,0.00016362461737446838,0.14097654067096282
-1.2729816232,-4.785645199999999,8.9204426528,0.012544553998709244,-0.015271630954950384,0.008726646259971648,-0.5645532999097358,0.00017453292519943296,0.14359285291734186
-1.2346964615999998,-4.7569313287999995,8.977870395199998,0.02181661564992912,-0.03490658503988659,0.015817046346198613,-0.5590224301195268,0.0003163409269239723,0.1390024578050799
-1.2538390423999999,-4.7760739096,8.997012976,0.020725784867432664,-0.022907446432425576,-0.003817907738737596,-0.5596818887382384,-7.635815477475192e-05,0.1407542382234427
-1.2346964615999998,-4.7952164904,8.8438723296,-0.012544553998709244,-0.04199698512611356,0.020180369476184436,-0.5701610255460825,0.00040360738952368875,0.13969306358423386
-1.2442677519999998,-4.8239303615999996,8.930013943199999,0.016362461737446838,-0.031088677301148997,0.006544984694978736,-0.5681614153269747,0.00013089969389957473,0.14010348571280465
-1.2251251712,-4.7665026192,8.9587278144,0.04199698512611356,-0.04036073895236887,0.003817907738737596,-0.5610964198436952,7.635815477475192e-05,0.13850076218139565
-1.2155538808,-4.7760739096,8.9682991048,0.02999784651865254,-0.02181661564992912,-0.003272492347489368,-0.5611788864721292,-6.544984694978737e-05,0.1370277532856979
-1.2251251712,-4.814359071199999,8.939585233599999,0.03599741582238305,-0.038179077387375956,0.00545415391248228,-0.566836585907846,0.0001090830782496456,0.1383065106602072
-1.2251251712,-4.7760739096,8.987441685599999,0.07744898555724837,-0.022907446432425576,0.0059995693037305075,-0.560187174192523,0.00011999138607461016,0.13879573672708656
-1.2059825903999999,-4.7665026192,8.977870395199998,0.056177785298567484,-0.02999784651865254,0.015271630954950384,-0.5598796659333695,0.0003054326190990077,0.13642434329988404
-1.2346964615999998,-4.6325045536,9.044869428,0.03763366199612773,-0.03763366199612773,0.008181230868723419,-0.5431402583138356,0.00016362461737446838,0.13928641841219572
-1.1676974288,-4.6612184247999995,8.949156524,0.061086523819801536,-0.02945243112740431,0.014726215563702155,-0.5508374045297232,0.0002945243112740431,0.13322068467495363
-1.2059825903999999,-4.680361005599999,9.121439751199999,0.03981532356112064,-0.015817046346198613,0.028361600344907856,-0.5435721438414624,0.0005672320068981572,0.13496036816652163
-1.1581261384,-4.6612184247999995,9.054440718399999,0.06217735460229799,-0.03981532356112064,0.02181661564992912,-0.5455678078764352,0.0004363323129985824,0.13097743394834166
-1.2251251712,-4.622933263199999,8.9682991048,0.05399612373357457,-0.03381575425739013,0.017453292519943295,-0.5460621896578861,0.00034906585039886593,0.1395215034284163
-1.2155538808,-4.622933263199999,9.0735832992,0.05672320068981571,-0.03381575425739013,0.025634523388666716,-0.5406338783333172,0.0005126904677733343,0.13725136772917831
-1.1198409768,-4.6707897152,8.9587278144,0.04308781590861001,-0.0409061543436171,0.02945243112740431,-0.5515232227882786,0.0005890486225480862,0.12734145713575912
-1.2059825903999999,-4.642075844,9.054440718399999,0.032179508083645454,-0.03545200043113482,0.012544553998709244,-0.5435655250152256,0.0002508910799741849,0.13581789677559936
-1.1964112999999998,-4.6612184247999995,9.0735832992,0.044178646691106466,-0.04581489286485115,0.025089107997418487,-0.5447011453357705,0.0005017821599483697,0.13465420537524822
-1.2346964615999998,-4.5655055207999995,9.054440718399999,0.05999569303730508,-0.019634954084936207,0.010362892433716332,-0.5355555562207153,0.00020725784867432664,0.1400199524630631
-1.1485548479999999,-4.6133619728,9.09272588,0.016907877128695067,-0.03490658503988659,0.011453723216212788,-0.5387201353202715,0.00022907446432425576,0.12887269570935272
-1.2059825903999999,-4.5750768112,9.0735832992,0.008726646259971648,-0.02999784651865254,-0.000545415391248228,-0.53575051883185,-1.090830782496456e-05,0.13553354553661034
-1.1868400095999998,-4.54636294,9.0831545896,0.04308781590861001,-0.015817046346198613,0.013089969389957472,-0.5320939350466712,0.00026179938779914946,0.1341342569896085
-1.1964112999999998,-4.594219391999999,9.006584266399999,0.05126904677733343,-0.02672535417116317,0.00272707695624114,-0.5410424216130997,5.45415391248228e-05,0.13597536848358513
-1.1389835575999998,-4.6325045536,9.1022971704,0.04854196982109229,-0.0409061543436171,0.025089107997418487,-0.540267174529854,0.0005017821599483697,0.12821741812554063
-1.1389835575999998,-4.6325045536,9.0257268472,0.03654283121363128,-0.0272707695624114,-0.000545415391248228,-0.543922799512929,-1.090830782496456e-05,0.12883045286966005
-1.1389835575999998,-4.5750768112,9.121439751199999,0.014726215563702155,-0.038179077387375956,0.02945243112740431,-0.5334913405708442,0.0005890486225480862,0.1276636255831669
-1.1485548479999999,-4.594219391999999,9.0161555568,0.032724923474893676,-0.020180369476184436,0.004363323129985824,-0.5404216357813025,8.726646259971648e-05,0.13015166384350024
-1.1676974288,-4.5655055207999995,9.131011041599999,0.009817477042468103,-0.020725784867432664,0.020180369476184436,-0.5317072489249619,0.00040360738952368875,0.13069700078551505
-1.1581261384,-4.5655055207999995,9.0735832992,0.04199698512611356,-0.015271630954950384,0.0059995693037305075,-0.5344977258858041,0.00011999138607461016,0.13091569881199291
-1.1581261384,-4.651647134399999,9.0735832992,0.017998707911191524,-0.03545200043113482,0.018544123302439753,-0.5435412410972992,0.00037088246604879505,0.12995187652660092
-1.1676974288,-4.5080777784,9.0735832992,0.038179077387375956,-0.015817046346198613,0.007635815477475192,-0.5287063148719578,0.00015271630954950385,0.13223624370734602
-1.1581261384,-4.555934230399999,9.0735832992,0.015271630954950384,0.0,0.0059995693037305075,-0.5332334257406041,0.00011999138607461016,0.13044648561940708
-1.1294122671999998,-4.622933263199999,9.111868460799998,0.03545200043113482,-0.039269908169872414,0.011999138607461015,-0.53879154923095,0.00023998277214922032,0.1268486340803205
-1.1485548479999999,-4.642075844,9.0831545896,0.02945243112740431,-0.022362031041177347,0.003817907738737596,-0.5418373489310652,7.635815477475192e-05,0.1290623325592928
-1.1676974288,-4.5655055207999995,9.054440718399999,0.044178646691106466,-0.03490658503988659,0.013089969389957472,-0.5358548801874323,0.00026179938779914946,0.1322434745812948
-1.1868400095999998,-4.584648101599999,9.111868460799998,0.027816184953659628,-0.019634954084936207,0.0136353847812057,-0.5345710885377983,0.000272707695624114,0.13328019203530403
-1.1198409768,-4.5655055207999995,9.054440718399999,0.06544984694978735,-0.03436116964863836,0.02127120025868089,-0.5358441900457638,0.0004254240051736178,0.12732029607685924
-1.1676974288,-4.5655055207999995,9.1597249128,0.05399612373357457,-0.04363323129985824,0.03763366199612773,-0.5307184494435071,0.0007526732399225546,0.13123812502267737
-1.1389835575999998,-4.488935197599999,9.1022971704,0.028361600344907856,-0.020180369476184436,0.015817046346198613,-0.5254136598388692,0.0003163409269239723,0.12862167215494152
-1.1102696864,-4.54636294,9.09272588,0.013089969389957472,-0.017998707911191524,0.0136353847812057,-0.5316537982166196,0.000272707695624114,0.12491283869537412
-1.1581261384,-4.498506488,9.1022971704,0.04636030825609938,-0.0272707695624114,0.007635815477475192,-0.5265214576345765,0.00015271630954950385,0.1310546197229822
-1.1198409768,-4.527220359199999,9.198010074399999,0.03545200043113482,-0.02127120025868089,0.016362461737446838,-0.5245411085396556,0.00032724923474893676,0.12537319238280234
-1.1389835575999998,-4.498506488,9.054440718399999,0.05235987755982989,-0.04908738521234052,0.0136353847812057,-0.5293522646773761,0.000272707695624114,0.12957744011080571
-1.0911271056,-4.4793639072,9.064012008799999,0.10471975511965978,-0.02672535417116317,0.017453292519943295,-0.5264882696253453,0.00034906585039886593,0.12524387181602478
-1.1294122671999998,-4.4315074552,9.1022971704,0.08835729338221293,-0.038179077387375956,0.013089969389957472,-0.519936511992215,0.00026179938779914946,0.12904462856987597
-1.0911271056,-4.4410787456,9.245866526399999,0.06926775468852496,-0.032179508083645454,0.023452861823673805,-0.5137593120132868,0.0004690572364734761,0.12280019285118575
-1.1294122671999998,-4.3836510032,9.198010074399999,0.07526732399225546,-0.022362031041177347,0.019089538693687978,-0.5100754294436877,0.0003817907738737596,0.12797678305825358
-1.0911271056,-4.354937132,9.2171526552,0.08126689329598596,-0.025634523388666716,0.016362461737446838,-0.5063001009567114,0.00032724923474893676,0.12377989257028649
-1.0432706535999998,-4.3262232608,9.236295236,0.08781187799096471,-0.04908738521234052,0.016907877128695067,-0.5029241033266274,0.00033815754257390134,0.11852899916203008
-1.0815558152,-4.307080679999999,9.188438783999999,0.12217304763960307,-0.04581489286485115,0.013089969389957472,-0.5031946696230428,0.00026179938779914946,0.12406702901771875
-1.0815558152,-4.2687955184,9.2745803976,0.2263473873680146,-0.05508695451607103,0.02127120025868089,-0.49538205456180084,0.0004254240051736178,0.1253755107522292
-1.0241280728,-4.1347974528,9.360722011199998,0.13308135546456762,-0.03490658503988659,0.022362031041177347,-0.4773221796557487,0.00044724062082354693,0.11690915256056836
-1.0336993632,-4.0295132584,9.389435882399999,0.12599095537834065,-0.030543261909900768,0.030543261909900768,-0.46513425426927557,0.0006108652381980154,0.11800736349181007
-1.0719845248,-4.0869410008,9.303294268799998,0.09762935503343281,-0.022907446432425576,0.0,-0.47476706276459424,0.0,0.12235707348799173
-1.0624132344,-3.9529429352,9.3415794304,0.0681769239060285,-0.030543261909900768,0.026179938779914945,-0.45931725788102906,0.0005235987755982989,0.12092137810065054
-1.0241280728,-3.9816568063999997,9.4085784632,0.07908523173099306,-0.03981532356112064,0.014180800172453928,-0.45953647108600887,0.0002836160034490786,0.1160381762373145
-1.0145567824,-3.9912280967999996,9.360722011199998,0.12490012459584421,-0.04854196982109229,0.04636030825609938,-0.4628003831604939,0.0009272061651219877,0.11631947703880624
-1.0049854919999999,-3.8859439023999998,9.360722011199998,0.11181015520588673,-0.04526947747360292,0.026179938779914945,-0.4517862174424188,0.0005235987755982989,0.11544711413257891
-1.0049854919999999,-3.8476587407999996,9.3702933016,0.210530341021816,-0.05399612373357457,0.05345070834232634,-0.4475420247408654,0.001069014166846527,0.11744605435097283
-0.9858429111999999,-3.7423745464,9.389435882399999,0.253618156930426,-0.06708609312353205,0.04145156973486533,-0.4359325962166389,0.0008290313946973066,0.11638339267022758
-0.9858429111999999,-3.5030922863999994,9.647860723199999,0.32179508083645453,-0.04526947747360292,0.056177785298567484,-0.40000165143979843,0.0011235557059713498,0.11603254018315692
-0.8709874263999998,-3.4648071248,9.5330052384,0.3861540970037454,-0.0818123086872342,0.038179077387375956,-0.4010808861964395,0.0007635815477475192,0.10572725239791246
-0.8039883936,-3.1010980895999998,9.513862657599999,0.4772384673421995,-0.1538071403320003,0.09490227807719166,-0.3640881363767425,0.0018980455615438332,0.10122679309069013
-0.7274180703999998,-2.9096722815999994,9.925428144799998,0.5835944686356039,-0.18435040224190105,0.17071501746069537,-0.3303867598267074,0.0034143003492139072,0.09189664568302225
-0.8135596839999999,-2.7661029256,9.9445707256,0.28525224962282325,-0.031088677301148997,-0.008726646259971648,-0.31148970209164184,-0.00017453292519943296,0.09572251996712865
-0.8039883936,-2.5938196984,9.829715240799999,0.09599310885968812,-0.023452861823673805,-0.033270338866141905,-0.29609970873915725,-0.0006654067773228382,0.09231753287705519
-0.7752745223999999,-2.6129622792,9.858429112,0.12762720155208535,-0.06654067773228381,-0.055632369907319255,-0.2982007147100702,-0.001112647398146385,0.08944221249439924
-0.7944171031999999,-2.3066809864,9.9924271776,0.22580197197676638,-0.033270338866141905,0.038179077387375956,-0.2606245964660034,0.0007635815477475192,0.09301682173389675
-0.7944171031999999,-2.2301106632,9.925428144799998,0.32670381935768855,0.05290529295107811,0.08072147790473774,-0.25222887369004215,0.001614429558094755,0.09570859197442395
-0.5647061335999999,-2.0195422744,9.7340023368,0.4232423436086249,-0.000545415391248228,0.06217735460229799,-0.23443140253146105,0.0012435470920459598,0.07331835436261516
-0.9188438783999999,-1.962114532,10.1264252432,0.5366887449882564,0.033270338866141905,0.055632369907319255,-0.2186648838905458,0.001112647398146385,0.11232903950525502
-1.1198409768,-1.0815558152,10.384850083999998,0.763036132356271,-0.03654283121363128,0.07963064712224129,-0.11963173372559059,0.0015926129424448257,0.13739148673374052
-0.7465606511999999,-1.1102696864,9.8680004024,0.49960049838337683,-0.0916297857297023,0.14126258633329106,-0.13018539800172332,0.0028252517266658212,0.09578074059254477
-0.8135596839999999,-0.9379864591999999,10.212566856799999,0.358883327441334,-0.03436116964863836,0.07853981633974483,-0.1056271240728946,0.0015707963267948967,0.09774814771829439
-0.7752745223999999,-0.7848458127999999,9.954142015999999,0.17453292519943295,-0.09599310885968812,0.08944812416470939,-0.09204596822973146,0.0017889624832941877,0.0922157602203206
-0.5934200047999999,-0.45942193919999996,10.1264252432,0.3605195736150787,-0.04799655442984406,0.039269908169872414,-0.05289371587649756,0.0007853981633974483,0.07407265885228653
-0.7848458127999999,-0.5359922624,10.021141048799999,0.4096069588274192,0.11999138607461016,0.008726646259971648,-0.05888043705379744,0.00017453292519943296,0.09746512287171584
-0.8901300072,-0.3445664544,9.9732845968,0.08726646259971647,-0.06654067773228381,0.02399827721492203,-0.0408786304983889,0.00047996554429844063,0.10365425951250389
-0.7944171031999999,-0.32542387359999997,10.241280727999998,-0.007635815477475192,-0.17507834059068117,-0.017998707911191524,-0.039831558888919046,-0.0003599741582238305,0.08851690028745256
-0.71784678,-0.46899322959999995,10.1742816952,0.056177785298567484,-0.18162332528565991,-0.18380498685065283,-0.056344525339381724,-0.003676099737013057,0.08173210278872159
-0.6604190376,-0.22013967919999997,10.097711372,0.1308996938995747,-0.017998707911191524,-0.015271630954950384,-0.02533086401360656,-0.0003054326190990077,0.07738745596859757
-0.7465606511999999,-0.5551348432,10.1264252432,-0.04854196982109229,-0.015271630954950384,-0.10308350894591509,-0.06305607632781819,-0.002061670178918302,0.08325152940935138
-0.9379864591999999,-0.09571290399999999,10.289137179999999,-0.12217304763960307,-0.050178215994836975,0.032724923474893676,-0.011642865486583723,0.0006544984694978735,0.1017778331234876
-0.7752745223999999,-0.39242290639999994,10.2029955664,-0.008726646259971648,-0.0136353847812057,0.11017390903214205,-0.04431921677702776,0.002203478180642841,0.08667038183622132
-0.6891329088,-0.430708068,10.145567823999999,-0.09708393964218458,-0.09653852425093636,-0.06654067773228381,-0.0505103218161265,-0.0013308135546456763,0.07574383286896416
-0.6987041991999999,-0.3541377448,10.3274223416,-0.08508480103472356,0.009817477042468103,0.1439896632895322,-0.03908678966909137,0.002879793265790644,0.07569623161001446
-0.8518448456,-0.7465606511999999,10.624132343999998,-0.2187115718905394,0.12980886311707826,0.1712604328519436,-0.07784739603965471,0.003425208657038872,0.08717226363376693
-0.9284151687999999,-0.8422735551999999,10.164710404799997,-0.16744252511320598,0.23889194136672387,0.12926344772583004,-0.09005474339087877,0.0025852689545166007,0.10073859129385514
-0.9475577495999999,-0.8901300072,9.6574320136,0.00545415391248228,-0.07090400086226964,0.12162763224835484,-0.1067117141820405,0.002432552644967097,0.11171185674427228
-1.0432706535999998,-0.6125625856,9.925428144799998,-0.022907446432425576,-0.04854196982109229,0.008726646259971648,-0.07158372372224694,0.00017453292519943296,0.11933232315517765
-0.861416136,-0.7082754896,9.580861690399999,-0.02672535417116317,-0.15162547876700738,-0.02945243112740431,-0.087531083338223,-0.0005890486225480862,0.10195113180371616
-0.8805587167999999,-0.6891329088,10.193424275999998,-0.08290313946973066,-0.019634954084936207,-0.07144941625351786,-0.07773749083850609,-0.0014289883250703573,0.09689607450832946
-0.6987041991999999,-0.5838487144,10.04985492,-0.08399397025222712,-0.15707963267948966,-0.02890701573615608,-0.06957625612720696,-0.0005781403147231217,0.07776068634562326
-0.5455635528,-1.0528419439999999,9.858429112,-0.15108006337575916,-0.1908953869368798,-0.09872018581592927,-0.12565878047587925,-0.0019744037163185856,0.06003147728889411
-0.5359922624,-1.0911271056,10.260423308799998,-0.23561944901923448,-0.19144080232812802,-0.08453938564347534,-0.1251563894347392,-0.0016907877128695067,0.054854028404352474
-0.5264209719999999,-1.4835500119999998,10.2987084704,-0.04690572364734761,-0.15489797111449674,0.026179938779914945,-0.1669796936809454,0.0005235987755982989,0.05700657629440313
-0.47856451999999994,-1.5314064639999998,9.9828558872,-0.09599310885968812,-0.13908092476829814,-0.022907446432425576,-0.17715384315599597,-0.0004581489286485115,0.05237640579291358
-0.29671000239999995,-1.4452648504,9.8967142736,-0.24980024919168842,-0.09926560120717749,-0.1521708941582556,-0.1681145730798233,-0.0030434178831651123,0.029088674448207435
-0.29671000239999995,-1.5314064639999998,9.9924271776,-0.1538071403320003,-0.10744683207590092,-0.10690141668465268,-0.17636930367025017,-0.002138028333693054,0.030609262825001902
-0.2679961312,-1.4644074311999997,10.2508520184,-0.02127120025868089,-0.003817907738737596,-0.002181661564992912,-0.16267687807479897,-4.363323129985824e-05,0.029233943983157925
-0.22013967919999997,-1.7706887239999998,10.068997500799998,0.050178215994836975,-0.04799655442984406,0.03763366199612773,-0.20041671929788865,0.0007526732399225546,0.025654339283657235
-0.18185451759999996,-1.5409777543999998,10.001998467999998,0.019089538693687978,-0.12380929381334775,-0.04254240051736178,-0.17759710283067437,-0.0008508480103472356,0.020963810251879475
-0.3541377448,-1.7036896912,10.097711372,-0.06490443155853913,0.016907877128695067,-0.050723631386085204,-0.1912040606568839,-0.001014472627721704,0.03834051098743449
-0.22013967919999997,-1.7419748527999996,10.2029955664,0.05399612373357457,-0.012544553998709244,0.009272061651219876,-0.19402160446571087,0.00018544123302439752,0.025426251576457053
-0.21056838879999998,-1.7419748527999996,9.9732845968,-0.026179938779914945,-0.06654067773228381,-0.027816184953659628,-0.19945561908731418,-0.0005563236990731925,0.02331661799685117
-0.10528419439999999,-1.7898313048,9.887142983199999,-0.06054110842855331,-0.105265170510908,-0.06272276999354622,-0.20728143213686345,-0.0012544553998709244,0.01082019198792931
-0.1531406464,-1.8568303375999997,9.9924271776,-0.04690572364734761,-0.12817261694333357,-0.03436116964863836,-0.21304912727027087,-0.0006872233929727672,0.016345688482492775
-0.11485548479999999,-1.8185451759999998,10.155139114399999,0.056177785298567484,-0.07744898555724837,0.06981317007977318,-0.20457209381860147,0.0013962634015954637,0.013858018966222983
-0.19142580799999998,-1.7419748527999996,10.0881400816,0.12326387842209953,-0.05126904677733343,0.05726861608106394,-0.1969442620316668,0.0011453723216212788,0.023840507348243573
-0.0765703232,-1.7515461431999997,10.068997500799998,0.003272492347489368,-0.06544984694978735,-0.03490658503988659,-0.19864492487625054,-0.0006981317007977319,0.008649239783727013
0.0,-1.9142580799999998,10.537990730399999,0.06763150851478027,-0.015271630954950384,0.000545415391248228,-0.20621306805221284,1.090830782496456e-05,0.0013255775668896933
-0.0191425808,-1.7802600144,10.260423308799998,0.08017606251348951,0.04581489286485115,0.04526947747360292,-0.19596701911466408,0.0009053895494720585,0.003677878904702726
-0.0861416136,-1.67497582,9.9828558872,0.12871803233458182,0.038179077387375956,0.07090400086226964,-0.18974504951900756,0.0014180800172453928,0.012274379774305268
-0.1531406464,-1.5888342063999998,9.954142015999999,0.038179077387375956,0.004363323129985824,-0.001636246173744684,-0.1812902559807676,-3.272492347489368e-05,0.018156069698937724
-0.1339980656,-1.3208380752,10.164710404799997,0.10199267816341863,-0.10199267816341863,0.000545415391248228,-0.15007363354776349,1.090830782496456e-05,0.016978491096584815
-0.057427742399999995,-1.4931213023999999,10.212566856799999,0.06708609312353205,-0.07308566242726255,0.02399827721492203,-0.16779161290003042,0.00047996554429844063,0.007690797990627024
-0.0382851616,-1.6558332392,10.001998467999998,0.11780972450961724,-0.04526947747360292,0.06490443155853913,-0.18888874594448876,0.0012980886311707827,0.0066364306299286704
0.0191425808,-1.67497582,9.9445707256,0.039269908169872414,-0.05345070834232634,0.00272707695624114,-0.19226085275388563,5.45415391248228e-05,-0.0014054740305058525
0.0095712904,-1.4548361407999997,10.394421374399998,0.04526947747360292,-0.07581273938350369,0.044724062082354694,-0.16083674188476105,0.0008944812416470939,-0.00015770302172239822
0.047856451999999994,-1.4835500119999998,10.1742816952,0.06763150851478027,0.004908738521234052,0.06435901616729091,-0.1658246973794289,0.0012871803233458182,-0.0040079890134806
0.1339980656,-1.6271193679999998,9.8010013696,-0.014180800172453928,-0.04254240051736178,-0.031088677301148997,-0.18935432308080694,-0.0006217735460229799,-0.015732286062477518
0.1339980656,-1.4261222696,10.155139114399999,0.033270338866141905,-0.07417649320975901,0.025634523388666716,-0.16133330315407285,0.0005126904677733343,-0.014320588787799234
0.047856451999999994,-1.5122638831999997,10.0594262104,0.025634523388666716,-0.06272276999354622,0.023452861823673805,-0.17221787142133974,0.0004690572364734761,-0.004888494858785279
0.028713871199999998,-1.4548361407999997,10.260423308799998,0.03545200043113482,-0.05890486225480862,-0.0059995693037305075,-0.16255917885855609,-0.00011999138607461016,-0.002480227659051264
0.0861416136,-1.5314064639999998,10.097711372,0.0545415391248228,-0.03763366199612773,0.03763366199612773,-0.1732114588736435,0.0007526732399225546,-0.008595821676132966
0.028713871199999998,-1.3304093656,10.269994599199999,0.049632800603588746,-0.05290529295107811,0.031634092692397225,-0.14866055516848425,0.0006326818538479446,-0.0022045045145414202
0.2009970984,-1.6941184007999999,10.068997500799998,0.038724492778624185,-0.039269908169872414,0.00545415391248228,-0.1917820685309607,0.0001090830782496456,-0.021795770133291696
0.21056838879999998,-1.4644074311999997,10.0594262104,0.049632800603588746,-0.025089107997418487,0.032724923474893676,-0.166145492351554,0.0006544984694978735,-0.022760420697111965
0.2009970984,-1.3591232368,9.9924271776,0.0272707695624114,-0.033270338866141905,0.015817046346198613,-0.15556355253320595,0.0003163409269239723,-0.022302194240165295
0.2009970984,-1.5888342063999998,10.1359965336,0.04690572364734761,-0.06217735460229799,0.04690572364734761,-0.17939296761955123,0.0009381144729469522,-0.021527185644052052
0.2009970984,-1.3782658176,10.260423308799998,0.050723631386085204,-0.038179077387375956,0.025089107997418487,-0.15376132902398096,0.0005017821599483697,-0.021251168716347687
0.1722832272,-1.5026925928,10.04985492,0.044178646691106466,-0.025634523388666716,0.022362031041177347,-0.17058404502085459,0.00044724062082354693,-0.018560522397636805
0.21056838879999998,-1.3974083983999999,10.0594262104,0.008726646259971648,-0.044724062082354694,0.00272707695624114,-0.15904955878053162,5.45415391248228e-05,-0.0235842239579095
0.19142580799999998,-1.4452648504,10.212566856799999,0.0272707695624114,-0.07690357016600015,0.03381575425739013,-0.1626055316877427,0.0006763150851478027,-0.020730347861092308
0.21056838879999998,-1.43569356,10.1838529856,0.05726861608106394,-0.0409061543436171,0.04199698512611356,-0.16129235731238245,0.0008399397025222712,-0.022336001221471242
0.21056838879999998,-1.3495519463999999,10.1072826624,0.02672535417116317,-0.03545200043113482,0.002181661564992912,-0.15280095984731232,4.363323129985824e-05,-0.02313605587437628
0.24885355039999998,-1.3782658176,10.097711372,0.04908738521234052,-0.04636030825609938,0.04145156973486533,-0.15635739086783138,0.0008290313946973066,-0.027013456095910854
0.22013967919999997,-1.3591232368,10.2029955664,-0.002181661564992912,-0.02672535417116317,0.00545415391248228,-0.15227585654112558,0.0001090830782496456,-0.02454680024538929
0.2775674216,-1.4165509792,10.1264252432,0.038724492778624185,-0.030543261909900768,0.014180800172453928,-0.15986338078438955,0.0002836160034490786,-0.03034026764169883
0.23928225999999997,-1.4548361407999997,10.0594262104,0.016362461737446838,-0.02127120025868089,0.026179938779914945,-0.16500283366827734,0.0005235987755982989,-0.02665139015078748
0.2679961312,-1.4548361407999997,10.04985492,0.07144941625351786,-0.055632369907319255,0.04254240051736178,-0.16583091122674487,0.0008508480103472356,-0.028835083799002327
0.21056838879999998,-1.2921242039999998,10.3082797608,0.0818123086872342,-0.03545200043113482,0.07417649320975901,-0.14358802662027814,0.0014835298641951802,-0.021619291333769965
0.28713871199999996,-1.2251251712,10.193424275999998,0.19525871006686563,-0.07963064712224129,0.12708178616083712,-0.13862836481262114,0.0025416357232167426,-0.028213246230518817
0.22971096959999998,-1.0911271056,10.155139114399999,0.16471544815696484,0.013089969389957472,0.10635600129340446,-0.12239671058802738,0.002127120025868089,-0.02253969855923105
0.28713871199999996,-1.1485548479999999,10.1072826624,0.17835083293817056,0.02181661564992912,0.13144510929082295,-0.12923386819120625,0.0026289021858164592,-0.028841979708817703
0.23928225999999997,-1.0815558152,10.030712339199999,0.017453292519943295,-0.004363323129985824,0.026179938779914945,-0.12316769461641947,0.0005235987755982989,-0.026831061738238994
0.19142580799999998,-1.2346964615999998,10.0115697584,0.05290529295107811,-0.009272061651219876,0.04036073895236887,-0.14079400433797815,0.0008072147790473775,-0.020706131588092456
0.1722832272,-1.1868400095999998,10.145567823999999,0.03436116964863836,-0.04036073895236887,0.0681769239060285,-0.13423507042745506,0.0013635384781205701,-0.01865184005871931
0.2009970984,-0.9858429111999999,10.3752787936,0.07308566242726255,-0.04908738521234052,0.033270338866141905,-0.10951931593619224,0.0006654067773228382,-0.02066471291302234
0.22971096959999998,-0.9858429111999999,10.1838529856,0.03490658503988659,-0.004908738521234052,0.03545200043113482,-0.11068143342296617,0.0007090400086226964,-0.02503896319060193
0.1531406464,-0.9284151687999999,10.164710404799997,-0.015817046346198613,-0.0059995693037305075,0.02399827721492203,-0.10449259280560191,0.00047996554429844063,-0.01750142344471526
0.1339980656,-1.1772687192,10.155139114399999,-0.007090400086226964,-0.00545415391248228,0.04581489286485115,-0.13236066599956164,0.000916297857297023,-0.015157989274560564
0.22971096959999998,-1.1868400095999998,10.1072826624,0.003272492347489368,-0.00272707695624114,0.030543261909900768,-0.13399833728725888,0.0006108652381980154,-0.025797289398131813
0.14356935599999998,-1.1006983959999999,10.145567823999999,0.022907446432425576,-0.02127120025868089,0.018544123302439753,-0.1242536012219113,0.00037088246604879505,-0.01567113997215001
0.21056838879999998,-1.1006983959999999,10.260423308799998,0.001636246173744684,-0.020725784867432664,0.02181661564992912,-0.12286726875662242,0.0004363323129985824,-0.023347447994356316
0.21056838879999998,-1.0049854919999999,9.9924271776,0.023452861823673805,-0.017453292519943295,0.027816184953659628,-0.11520596177362474,0.0005563236990731925,-0.023563239349269505
0.1531406464,-1.1389835575999998,10.193424275999998,-0.0136353847812057,-0.016362461737446838,0.014180800172453928,-0.12783306067128297,0.0002836160034490786,-0.017375141524363022
0.0765703232,-1.2442677519999998,10.2029955664,0.003272492347489368,-0.019634954084936207,0.008181230868723419,-0.1394439944635432,0.00016362461737446838,-0.008472199455701764
0.12442677519999999,-1.2059825903999999,10.097711372,0.02454369260617026,-0.04908738521234052,0.01090830782496456,-0.13717508363602818,0.0002181661564992912,-0.013538890925431465
0.14356935599999998,-1.1676974288,10.0594262104,0.026179938779914945,-0.0272707695624114,0.032179508083645454,-0.13295963421841706,0.0006435901616729091,-0.015731347248487734
0.0765703232,-1.1198409768,10.222138147199999,0.020180369476184436,-0.02127120025868089,0.025634523388666716,-0.1254539994684297,0.0005126904677733343,-0.008136895966290162
0.0861416136,-1.1868400095999998,10.2029955664,0.030543261909900768,-0.025089107997418487,0.018544123302439753,-0.1331913700688,0.00037088246604879505,-0.00901103901214644
0.19142580799999998,-1.1006983959999999,10.097711372,0.025089107997418487,-0.026179938779914945,0.019089538693687978,-0.1249321252232785,0.0003817907738737596,-0.021101294754908156
0.12442677519999999,-1.1868400095999998,10.1264252432,0.04690572364734761,-0.019634954084936207,0.004908738521234052,-0.13407882134877178,9.817477042468104e-05,-0.01306448115897129
0.047856451999999994,-1.0049854919999999,10.269994599199999,0.032724923474893676,-0.019089538693687978,0.05835944686356039,-0.11215352864620938,0.001167188937271208,-0.004672943435551129
0.2775674216,-0.7944171031999999,10.1264252432,0.136353847812057,0.1265363707695889,0.20016744858809968,-0.08723311462883962,0.004003348971761993,-0.02863324834867509
0.12442677519999999,-0.8997012975999998,10.164710404799997,0.3763366199612773,0.007090400086226964,0.3856086816124972,-0.1010249480197214,0.0077121736322499435,-0.0065956984009200225
-0.14356935599999998,-0.6317051664,10.1264252432,0.34797501961636945,0.03490658503988659,0.3321579732701708,-0.07070765723686413,0.006643159465403416,0.023034149092880228
0.12442677519999999,-1.1485548479999999,10.0594262104,0.20398535632683726,-0.012544553998709244,0.1718058482431918,-0.13051890648436457,0.0034361169648638363,-0.010083710009980413
-0.14356935599999998,-0.4881358104,10.4231352456,0.1810779098944117,0.21543907954305005,0.16907877128695067,-0.049403680394466146,0.0033815754257390134,0.01931481298590824
-0.2009970984,-0.5168496816,9.9445707256,-0.013089969389957472,0.044178646691106466,0.004363323129985824,-0.05863728985470746,8.726646259971648e-05,0.02287002864783026
-0.22971096959999998,-0.45942193919999996,10.068997500799998,0.09926560120717749,-0.03981532356112064,0.014726215563702155,-0.053029264194984736,0.0002945243112740431,0.02805647676204512
-0.23928225999999997,-0.430708068,10.241280727999998,0.044724062082354694,-0.023452861823673805,0.001636246173744684,-0.048624004914308426,3.272492347489368e-05,0.027621816763399268
-0.22971096959999998,-0.38285161599999995,10.0594262104,0.05890486225480862,-0.04745113903859583,-0.000545415391248228,-0.04452139491901943,-1.090830782496456e-05,0.02729850215320139
-0.2775674216,-0.5168496816,10.212566856799999,0.06217735460229799,-0.04036073895236887,0.015271630954950384,-0.05873548709506839,0.0003054326190990077,0.03231607832677708
-0.18185451759999996,-0.4881358104,10.193424275999998,-0.02399827721492203,-0.027816184953659628,-0.05726861608106394,-0.05537813968429184,-0.0011453723216212788,0.01994763690997358
-0.19142580799999998,-0.44027935839999993,10.241280727999998,0.015817046346198613,-0.025634523388666716,-0.009272061651219876,-0.049735781519661994,-0.00018544123302439752,0.02170674425212516
-0.24885355039999998,-0.45942193919999996,10.2508520184,0.08726646259971647,-0.014180800172453928,0.04690572364734761,-0.05160116013738905,0.0009381144729469522,0.0294957583037554
-0.21056838879999998,-0.37328032559999996,9.963713306399999,0.04308781590861001,-0.05945027764605685,0.0272707695624114,-0.044075712539802775,0.000545415391248228,0.025041183504014273
-0.2009970984,-0.4019941968,10.2795658896,0.003817907738737596,-0.031634092692397225,-0.026179938779914945,-0.04540954697580859,-0.0005235987755982989,0.02246104033150538
-0.21056838879999998,-0.5264209719999999,10.145567823999999,0.030543261909900768,-0.02945243112740431,0.007635815477475192,-0.05998187979402755,0.00015271630954950385,0.024346450913825462
-0.22971096959999998,-0.46899322959999995,10.1264252432,0.04363323129985824,-0.02181661564992912,0.022907446432425576,-0.05346141375483023,0.0004581489286485115,0.026817239108791097
-0.24885355039999998,-0.4498506487999999,10.04985492,0.008726646259971648,-0.001636246173744684,-0.015271630954950384,-0.05129121845719973,-0.0003054326190990077,0.028511931199262062
-0.14356935599999998,-0.4019941968,10.1072826624,0.03599741582238305,-0.05781403147231216,0.02127120025868089,-0.04668533418353893,0.0004254240051736178,0.01696880845754607
-0.21056838879999998,-0.3158525832,10.078568791199999,0.050723631386085204,-0.02399827721492203,0.04036073895236887,-0.03637050098013945,0.0008072147790473775,0.024920214000851666
-0.28713871199999996,-0.46899322959999995,10.116853952799998,0.038724492778624185,-0.02399827721492203,0.012544553998709244,-0.05355427650154495,0.0002508910799741849,0.0332390296203628
-0.19142580799999998,-0.42113677759999996,10.1742816952,0.007635815477475192,-0.015271630954950384,-0.022362031041177347,-0.047704328814154165,-0.00044724062082354693,0.02168870900932143
-0.22971096959999998,-0.4019941968,9.9924271776,0.025089107997418487,-0.03436116964863836,-0.0059995693037305075,-0.04674868541711744,-0.00011999138607461016,0.02680871447097422
-0.2009970984,-0.33499516399999996,10.2317094376,0.03763366199612773,-0.023452861823673805,-0.012544553998709244,-0.03796456266872063,-0.0002508910799741849,0.023233644015292012
-0.19142580799999998,-0.32542387359999997,10.2987084704,-0.003272492347489368,0.00272707695624114,-0.018544123302439753,-0.03614373396651643,-0.00037088246604879505,0.021222331206639147
-0.2679961312,-0.4498506487999999,10.1838529856,0.050178215994836975,-0.02399827721492203,-0.011999138607461015,-0.051055933499729575,-0.00023998277214922032,0.031102850907022042
-0.24885355039999998,-0.33499516399999996,10.001998467999998,0.10090184738092217,-0.04690572364734761,0.04254240051736178,-0.039284958686424516,0.0008508480103472356,0.030466645897974126
-0.2679961312,-0.22971096959999998,9.9828558872,0.10744683207590092,-0.02127120025868089,0.007090400086226964,-0.0267804071305669,0.0001418080017245393,0.03285327046314876
-0.21056838879999998,-0.2679961312,10.356136212800001,0.11944597068336194,-0.03436116964863836,-0.031088677301148997,-0.03032086998752766,-0.0006217735460229799,0.02562971422091192
-0.0669990328,-0.24885355039999998,10.1359965336,0.389972004742483,-0.000545415391248228,0.05945027764605685,-0.028138944340776312,0.001189005552921137,0.015215572122515474
-0.22013967919999997,0.0765703232,10.068997500799998,0.35015668118136234,-0.03763366199612773,0.004363323129985824,0.007976399250230625,8.726646259971648e-05,0.03191164389512404
-0.2009970984,0.16271193679999998,10.0402836296,0.4439681284760576,-0.04254240051736178,0.07090400086226964,0.01773514883507369,0.0014180800172453928,0.03163586050370968
-0.3158525832,0.46899322959999995,10.241280727999998,0.6130468997630083,-0.007090400086226964,0.13035427850832648,0.052300899295958346,0.0026070855701665297,0.04730887800809244
-0.6508477471999999,1.0241280728,10.346564922399999,0.6528622233241289,-0.07581273938350369,0.05726861608106394,0.11157130566712109,0.0011453723216212788,0.0844355723210952
-0.0382851616,1.0528419439999999,9.638289432799999,0.6768605005390509,0.032179508083645454,0.018544123302439753,0.12531087043221376,0.00037088246604879505,0.017791325836388913
-0.2775674216,1.5122638831999997,9.8680004024,0.7853981633974483,-0.14289883250703572,0.0916297857297023,0.17145420714971132,0.001832595714594046,0.04724599251240313
-0.0382851616,2.2013967919999997,9.676574594399998,0.6954046238414907,-0.09272061651219876,0.08835729338221293,0.25451293471628433,0.0017671458676442587,0.01805074206081363
-0.1722832272,2.2301106632,9.6957171752,0.543233729683235,-0.008181230868723419,0.06763150851478027,0.2589056818733477,0.0013526301702956054,0.03048903103245453
0.0,2.6225335696,9.628718142399999,0.5923211148955756,0.03381575425739013,0.13744467859455345,0.30537959233752904,0.002748893571891069,0.01160949385195328
-0.22013967919999997,2.9001009911999995,9.4181497536,0.46851182108222783,0.03654283121363128,0.03436116964863836,0.34301630207179207,0.0006872233929727672,0.034777057100193805
-0.12442677519999999,3.2829526072,9.178867493599999,0.49741883681838395,0.06654067773228381,0.017453292519943295,0.39491045907736033,0.00034906585039886593,0.024375017169165743
-0.21056838879999998,3.4743784152,8.8917287816,0.500145913774625,-0.0136353847812057,0.08999353955595761,0.42658698018665403,0.0017998707911191522,0.03507458106143723
-0.18185451759999996,3.7806597079999995,9.0161555568,0.43578689760733413,0.04745113903859583,0.11181015520588673,0.4559161965627444,0.002236203104117735,0.029853855785316828
-0.3541377448,4.0199419679999995,9.0831545896,0.37579120457002907,0.04854196982109229,0.037088246604879506,0.4784073820758027,0.0007417649320975901,0.04820331216689952
-0.24885355039999998,4.1922251952,8.8247297488,0.39706240482870997,-0.022362031041177347,0.06490443155853913,0.5077667683567366,0.0012980886311707827,0.0369643002874203
0.0095712904,4.4697926167999995,8.470592003999998,0.42978732830360367,0.05890486225480862,0.11017390903214205,0.5575520658928639,0.002203478180642841,0.007278668551113313
-0.28713871199999996,4.5367916496,8.327022648,0.23889194136672387,-0.030543261909900768,-0.025089107997418487,0.571056695457871,-0.0005017821599483697,0.03937028009991103
-0.11485548479999999,4.584648101599999,8.0494552264,0.12980886311707826,-0.03654283121363128,-0.000545415391248228,0.5925659740232602,-1.090830782496456e-05,0.016751380665256273
-0.2584248408,4.8047877808,8.346165228799999,0.016907877128695067,-0.018544123302439753,-0.03763366199612773,0.5982069549245128,-0.0007526732399225546,0.031073859454948952
-0.1722832272,4.8047877808,8.489734584799999,-0.006544984694978736,-0.031088677301148997,-0.003817907738737596,0.5895467875937025,-7.635815477475192e-05,0.020107484815155577
-0.28713871199999996,4.680361005599999,8.327022648,0.011453723216212788,-0.00545415391248228,-0.007090400086226964,0.5866728900714339,-0.0001418080017245393,0.034660189957582056
-0.3062812928,4.651647134399999,8.413164261599999,-0.003817907738737596,-0.030543261909900768,0.006544984694978736,0.5781663675830019,0.00013089969389957473,0.03642116576331774
-0.19142580799999998,4.6037906824,8.2408810344,-0.012544553998709244,-0.03763366199612773,-0.003817907738737596,0.5830629438838082,-7.635815477475192e-05,0.0229888584777872
-0.19142580799999998,4.622933263199999,8.4993058752,-0.009272061651219876,-0.019634954084936207,0.011999138607461015,0.5704672721243257,0.00023998277214922032,0.02248745759882942
-0.32542387359999997,4.622933263199999,8.413164261599999,-0.12217304763960307,-0.04526947747360292,-0.08944812416470939,0.574878095578547,-0.0017889624832941877,0.03643665962027562
-0.3158525832,4.450650035999999,8.4993058752,0.04199698512611356,-0.03490658503988659,0.031634092692397225,0.5520906701630265,0.0006326818538479446,0.038534885795499504
-0.11485548479999999,4.6707897152,8.394021680799998,-0.17616917137317764,-0.014180800172453928,-0.11126473981463851,0.5815904286208919,-0.00222529479629277,0.010247684128752656
-0.28713871199999996,4.4793639072,8.2695949056,-0.4723297288209654,0.02454369260617026,-0.16471544815696484,0.5693396288623483,-0.0032943089631392967,0.025717388521888818
-0.2584248408,4.1347974528,8.681160392799999,-0.5421428989007386,-0.15435255572324852,-0.10090184738092217,0.5063396709661553,-0.0020180369476184433,0.02016384636490548
-0.28713871199999996,3.8093735792,8.604590069599999,-1.3166327544732224,-0.044724062082354694,-0.47123889803846897,0.47671638656473597,-0.00942477796076938,0.009149426396996983
-0.3637090351999999,2.4981067944,8.8247297488,-1.7780541754692232,0.09381144729469522,-0.5077817292521003,0.31795411572372406,-0.010155634585042006,0.01056927651702979
-0.9188438783999999,1.5696916255999998,10.269994599199999,-1.1388273369263,-0.10581058590215622,-0.1461713248545251,0.17172567540267084,-0.0029234264970905022,0.0787627058009134
-0.8327022648,0.9762716208,10.001998467999998,-0.9173886880795195,-0.21271200258680892,-0.10635600129340446,0.10732778746947555,-0.002127120025868089,0.07675311995044629
-0.8997012975999998,0.9188438783999999,10.624132343999998,-0.5606870222031783,-0.25089107997418486,-0.04799655442984406,0.09394274920477673,-0.0009599310885968813,0.08546270311206783
-0.16271193679999998,0.18185451759999996,10.5475620208,-0.136353847812057,-0.3332488040526673,0.09490227807719166,0.013223531433363935,0.0018980455615438332,0.015000900004653851
-0.24885355039999998,0.0191425808,9.877571692799998,-0.09108437033845407,0.04908738521234052,-0.026179938779914945,0.003182876617722151,-0.0005235987755982989,0.027078552720703353
-0.22971096959999998,0.3062812928,10.356136212800001,0.10690141668465268,-0.1870774791981422,-0.004908738521234052,0.030213700342522003,-9.817477042468104e-05,0.027497718161911915
-0.057427742399999995,0.3541377448,9.7914300792,-0.026179938779914945,-0.09381144729469522,0.016362461737446838,0.0395888650709349,0.00032724923474893676,0.006203317221713391
-0.12442677519999999,0.0669990328,9.5904329808,-0.12544553998709243,-0.179441663720667,-0.010362892433716332,0.0044882114966645955,-0.00020725784867432664,0.012407238941445901
-0.29671000239999995,0.49770710079999997,10.4231352456,0.044178646691106466,-0.28361600344907856,-0.01090830782496456,0.049117328617536836,-0.0002181661564992912,0.03344018639493384
0.19142580799999998,0.3158525832,10.1072826624,0.02999784651865254,0.028361600344907856,0.019089538693687978,0.036354099531681616,0.0003817907738737596,-0.02110180900667136
-0.0861416136,0.12442677519999999,10.0594262104,0.04581489286485115,0.00545415391248228,0.02127120025868089,0.014280205906569395,0.0004254240051736178,0.010709769653355797
0.4019941968,0.057427742399999995,10.2029955664,-0.12762720155208535,-0.17998707911191522,0.07254024703601432,0.002921991464462975,0.0014508049407202864,-0.04762608324932762
0.09571290399999999,-0.1531406464,10.155139114399999,-0.08453938564347534,-0.12380929381334775,0.08290313946973066,-0.01970588912142074,0.0016580627893946131,-0.012455759878750266
0.3158525832,-0.5359922624,3.397808092,1.2048225992673356,0.5448699758569797,0.08890270877346117,-0.16860731835506457,0.0017780541754692234,-0.08131187013314906
0.41156548719999997,-0.9762716208,9.839286531199999,0.01090830782496456,-0.02999784651865254,0.03381575425739013,-0.1139168189132026,0.0006763150851478027,-0.04745672788598282
0.10528419439999999,-0.29671000239999995,10.097711372,0.050178215994836975,-0.013089969389957472,0.013089969389957472,-0.033918330992754535,0.00026179938779914946,-0.010958854992739646
0.11485548479999999,-0.46899322959999995,10.241280727999998,0.031088677301148997,-0.017998707911191524,0.016907877128695067,-0.05279264581270775,0.00033815754257390134,-0.012228060321408706
0.18185451759999996,-0.5359922624,10.1264252432,0.02672535417116317,-0.02127120025868089,0.015817046346198613,-0.06101374574260573,0.0003163409269239723,-0.02002403859821508
0.14356935599999998,-0.5168496816,10.1742816952,0.038179077387375956,-0.020725784867432664,0.019634954084936207,-0.058568309491989136,0.00039269908169872416,-0.015399819631622475
0.1531406464,-0.5455635528,10.164710404799997,0.017453292519943295,-0.02672535417116317,0.018544123302439753,-0.061968804423796514,0.00037088246604879505,-0.01689606691756925
0.14356935599999998,-0.5168496816,10.222138147199999,0.019089538693687978,-0.026179938779914945,0.016362461737446838,-0.05840338064723712,0.00032724923474893676,-0.015698577875371263
0.16271193679999998,-0.5168496816,10.2029955664,0.019634954084936207,-0.02945243112740431,0.018544123302439753,-0.058575948384992235,0.00037088246604879505,-0.01786466115376317
0.1722832272,-0.5551348432,10.1742816952,0.044178646691106466,-0.0136353847812057,0.017453292519943295,-0.06272940465189793,0.00034906585039886593,-0.018507460157111865
0.057427742399999995,-0.42113677759999996,10.1742816952,0.025089107997418487,-0.02672535417116317,0.013089969389957472,-0.04792882178919193,0.00026179938779914946,-0.0059706601690235235
0.16271193679999998,-0.5072783912,10.1264252432,0.019089538693687978,-0.02399827721492203,0.014726215563702155,-0.057826509749365124,0.0002945243112740431,-0.018013839486088236
0.1531406464,-0.49770710079999997,10.155139114399999,0.02181661564992912,-0.030543261909900768,0.014726215563702155,-0.05671548978276975,0.0002945243112740431,-0.01683090925048106
0.18185451759999996,-0.5359922624,10.1742816952,0.02181661564992912,-0.02454369260617026,0.019634954084936207,-0.06079338650068381,0.00039269908169872416,-0.020023888199965
0.1531406464,-0.5264209719999999,10.0881400816,0.022362031041177347,-0.02999784651865254,0.016362461737446838,-0.060330125901336726,0.00032724923474893676,-0.01693204144088438
0.1531406464,-0.5359922624,10.1359965336,0.02890701573615608,-0.018544123302439753,0.010362892433716332,-0.06090318069481541,0.00020725784867432664,-0.01672112731573129
0.1339980656,-0.5264209719999999,10.1742816952,0.02945243112740431,-0.02181661564992912,0.015271630954950384,-0.05966486497451684,0.0003054326190990077,-0.014493723587778659
0.1531406464,-0.5455635528,10.116853952799998,0.031634092692397225,-0.02181661564992912,0.010362892433716332,-0.06216268985147326,0.00020725784867432664,-0.016699417811425712
0.1531406464,-0.5359922624,10.164710404799997,0.023452861823673805,-0.025089107997418487,0.014180800172453928,-0.06086076294286263,0.0002836160034490786,-0.016779336368513507
0.12442677519999999,-0.49770710079999997,10.155139114399999,0.02945243112740431,-0.019089538693687978,0.02127120025868089,-0.05649099680773199,0.0004254240051736178,-0.013445636038839791
0.1531406464,-0.5264209719999999,10.0881400816,0.02454369260617026,-0.02181661564992912,0.014180800172453928,-0.06016977377630975,0.0002836160034490786,-0.01688928087421052
0.1339980656,-0.5359922624,10.155139114399999,0.025634523388666716,-0.02672535417116317,0.017998707911191524,-0.06094962622628969,0.0003599741582238305,-0.014596141983853296
0.16271193679999998,-0.5072783912,10.155139114399999,0.02999784651865254,-0.02127120025868089,0.017998707911191524,-0.057611152911056486,0.0003599741582238305,-0.017748182669551586
0.1531406464,-0.5072783912,10.116853952799998,0.025634523388666716,-0.026179938779914945,0.015271630954950384,-0.05792344274816114,0.0003054326190990077,-0.016820410375477216
0.14356935599999998,-0.5168496816,10.116853952799998,0.028361600344907856,-0.023452861823673805,0.0136353847812057,-0.05895134238757678,0.000272707695624114,-0.015683655961832563
0.12442677519999999,-0.5168496816,10.155139114399999,0.025634523388666716,-0.02127120025868089,0.016907877128695067,-0.0586884472554514,0.00033815754257390134,-0.013519150088737749
0.11485548479999999,-0.49770710079999997,10.2508520184,0.02672535417116317,-0.0272707695624114,0.0136353847812057,-0.05612820779527045,0.000272707695624114,-0.012299931179955065
0.14356935599999998,-0.5168496816,10.145567823999999,0.023452861823673805,-0.025089107997418487,0.017453292519943295,-0.05881815653633406,0.00034906585039886593,-0.015734031515676223
0.11485548479999999,-0.47856451999999994,10.241280727999998,0.04581489286485115,-0.016362461737446838,0.018544123302439753,-0.05382923737063697,0.00037088246604879505,-0.011938872712357055
0.12442677519999999,-0.49770710079999997,10.193424275999998,0.017998707911191524,-0.031088677301148997,0.014726215563702155,-0.05651574736197278,0.0002945243112740431,-0.01361759154519987
0.14356935599999998,-0.5264209719999999,10.1742816952,0.01090830782496456,-0.030543261909900768,0.011453723216212788,-0.05983590724121228,0.00022907446432425576,-0.01593355003156142
0.0382851616,-0.3637090351999999,10.212566856799999,0.025089107997418487,-0.02454369260617026,0.015271630954950384,-0.04127430515398686,0.0003054326190990077,-0.0038013526892144833
0.19142580799999998,-0.5359922624,10.116853952799998,0.031634092692397225,-0.028361600344907856,0.012544553998709244,-0.061209939690299774,0.0002508910799741849,-0.021029443579375744
0.18185451759999996,-0.5264209719999999,10.1072826624,0.020725784867432664,-0.032724923474893676,0.018544123302439753,-0.0602706328997518,0.00037088246604879505,-0.02018145075140742
0.14356935599999998,-0.5264209719999999,10.155139114399999,0.014180800172453928,-0.025634523388666716,0.010362892433716332,-0.05985115965119845,0.00020725784867432664,-0.015899761644149708
0.14356935599999998,-0.5264209719999999,10.1359965336,0.02181661564992912,-0.028361600344907856,0.019089538693687978,-0.060016493928973194,0.0003817907738737596,-0.015780566284573444
0.1339980656,-0.5264209719999999,10.212566856799999,0.02672535417116317,-0.017998707911191524,0.014726215563702155,-0.05936835685518642,0.0002945243112740431,-0.014490832197551942
0.16271193679999998,-0.49770710079999997,10.1359965336,0.020180369476184436,-0.026179938779914945,0.017453292519943295,-0.05673577962661777,0.00034906585039886593,-0.0179759997817589
0.16271193679999998,-0.5072783912,10.097711372,0.028361600344907856,-0.020180369476184436,0.011453723216212788,-0.05791450336934807,0.00022907446432425576,-0.017884254778668705
0.1339980656,-0.5168496816,10.155139114399999,0.025089107997418487,-0.02454369260617026,0.01090830782496456,-0.058752588105462196,0.0002181661564992912,-0.014608303431609349
0.12442677519999999,-0.5168496816,10.164710404799997,0.033270338866141905,-0.02399827721492203,0.015271630954950384,-0.0586871227567676,0.0003054326190990077,-0.013356320481105455
0.1339980656,-0.5168496816,10.1742816952,0.0272707695624114,-0.02399827721492203,0.013089969389957472,-0.058632450341999924,0.00026179938779914946,-0.014537209077590148
0.1339980656,-0.5072783912,10.1264252432,0.025634523388666716,-0.020180369476184436,0.016362461737446838,-0.057751678757685866,0.00032724923474893676,-0.01464103584390705
0.11485548479999999,-0.5168496816,10.1838529856,0.02399827721492203,-0.02127120025868089,0.014180800172453928,-0.05852442972231479,0.0002836160034490786,-0.012436335744666053
0.1339980656,-0.5072783912,10.1742816952,0.025089107997418487,-0.022907446432425576,0.018544123302439753,-0.05753579235622737,0.00037088246604879505,-0.014580681367815429
-0.047856451999999994,-0.2009970984,10.4518491168,0.011999138607461015,-0.033270338866141905,0.014180800172453928,-0.022686220945903893,0.0002836160034490786,0.005481042790896331
0.11485548479999999,-0.44027935839999993,10.260423308799998,0.061631939211049765,-0.007090400086226964,0.013089969389957472,-0.04928057612630329,0.00026179938779914946,-0.011607099730444425
0.0861416136,-0.42113677759999996,10.164710404799997,-0.05945027764605685,-0.07254024703601432,0.019089538693687978,-0.048871380188558716,0.0003817907738737596,-0.010867818520528377
0.3062812928,-0.7369893607999999,10.2508520184,-0.18162332528565991,-0.1990766178056032,0.06763150851478027,-0.08614647860335904,0.0013526301702956054,-0.03769994011282094
0.0861416136,-0.6795616184,10.1838529856,-0.04799655442984406,-0.2007128639793479,0.11999138607461016,-0.08028695004921882,0.002399827721492203,-0.01061188940027656
0.4881358104,-0.7369893607999999,9.963713306399999,0.00545415391248228,-0.37251871222253974,-0.04363323129985824,-0.09190761995534988,-0.0008726646259971648,-0.05583562219809313
0.6891329088,-0.8135596839999999,10.269994599199999,0.038179077387375956,-0.3223404962277027,0.011453723216212788,-0.09690486634244512,0.00022907446432425576,-0.07579028408700678
1.0336993632,-0.7274180703999998,10.2987084704,0.06708609312353205,-0.3997894817849511,0.1090830782496456,-0.08863995421106921,0.002181661564992912,-0.1130357418379102
1.6079767872,-0.6412764567999999,10.0115697584,0.16417003276571662,-0.693768377667746,0.1696241866781989,-0.08689767045226188,0.003392483733563978,-0.17890441739900756
1.7898313048,-0.6795616184,10.021141048799999,0.02399827721492203,-0.6081381612417742,0.0681769239060285,-0.08950846355043447,0.0013635384781205701,-0.20160644142095033
2.0961125976,-0.6221338759999999,9.9732845968,0.10253809355466686,-0.5355979142057599,0.02127120025868089,-0.08188747460131511,0.0004254240051736178,-0.23492792390253617
2.5842484079999997,-0.5647061335999999,9.8010013696,0.14453507868078042,-0.3948807432637171,-0.013089969389957472,-0.07369117984979051,-0.00026179938779914946,-0.2921213233472603
2.7469603447999997,-0.49770710079999997,9.9158568544,0.055632369907319255,-0.3392483733563978,0.014180800172453928,-0.06411803806965594,0.0002836160034490786,-0.30822228603170754
2.9192435719999996,-0.41156548719999997,9.9349994352,0.09272061651219876,-0.37251871222253974,0.02945243112740431,-0.05474473170277851,0.0005890486225480862,-0.32540898809815205
3.1106693799999996,-0.5264209719999999,9.829715240799999,0.10308350894591509,-0.35615625048509286,0.032179508083645454,-0.06829050472353802,0.0006435901616729091,-0.3487132736913578
3.4073793824,-0.4019941968,9.638289432799999,0.06272276999354622,-0.3648828967450645,-0.008726646259971648,-0.05491791770903574,-0.00017453292519943296,-0.38785362265860346
3.6945180944,-0.38285161599999995,9.628718142399999,0.08072147790473774,-0.32179508083645453,0.01090830782496456,-0.05184643908537696,0.0002181661564992912,-0.41794920231474914
3.9338003543999998,-0.33499516399999996,9.3990071728,0.038724492778624185,-0.24816400301794372,0.015817046346198613,-0.04568893876174131,0.0003163409269239723,-0.45320097527538816
3.972085516,-0.2584248408,9.236295236,0.04908738521234052,-0.13908092476829814,0.05835944686356039,-0.034779510593945615,0.001167188937271208,-0.4642793903839406
3.9338003543999998,-0.37328032559999996,9.427721044,-0.05508695451607103,-0.061086523819801536,0.02181661564992912,-0.04654488614249406,0.0004363323129985824,-0.45373624946412094
4.1156548719999995,-0.32542387359999997,9.523433948,-0.007090400086226964,-0.014180800172453928,0.0409061543436171,-0.03941962850558532,0.000818123086872342,-0.4673377089884169
4.0007993872,-0.5072783912,9.3702933016,-0.0059995693037305075,0.007635815477475192,-0.004908738521234052,-0.06182612736429673,-9.817477042468104e-05,-0.4619293363334594
4.0199419679999995,-0.37328032559999996,9.4564349152,0.006544984694978736,0.022907446432425576,-0.012544553998709244,-0.044761052272749936,-0.0002508910799741849,-0.4601587005515892
3.972085516,-0.430708068,9.475577496,0.02127120025868089,-0.04363323129985824,0.011999138607461015,-0.0529064553834734,0.00023998277214922032,-0.45402234817769566
3.9338003543999998,-0.5072783912,9.542576528799998,0.011453723216212788,0.044178646691106466,0.014726215563702155,-0.059993089019348564,0.0002945243112740431,-0.4472711713048984
3.9433716447999996,-0.45942193919999996,9.446863624799999,0.019089538693687978,0.04254240051736178,0.007635815477475192,-0.05485071466189124,0.00015271630954950385,-0.45228394153849133
3.8955151927999996,-0.44027935839999993,9.5521478192,-0.014726215563702155,0.12053680146585838,0.008181230868723419,-0.05041787536823097,0.00016362461737446838,-0.4435916808948524
3.8189448695999997,-0.47856451999999994,9.5617191096,-0.002181661564992912,0.10744683207590092,0.039269908169872414,-0.05519935657806604,0.0007853981633974483,-0.43498398123115734
3.7040893847999996,-0.49770710079999997,9.475577496,-0.05781403147231216,0.38124535848251134,0.04745113903859583,-0.05266183585266282,0.0009490227807719166,-0.42761775388353546
3.1968109935999998,-0.6029912951999999,9.8201439504,-0.056177785298567484,0.4919646829059016,0.09926560120717749,-0.06063249742714371,0.00198531202414355,-0.3611056420577918
2.8426732488,-0.6029912951999999,9.7244310464,-0.04745113903859583,0.650680561759136,0.09762935503343281,-0.058211590784478476,0.0019525871006686563,-0.3262353019548098
2.6416761504,-0.6508477471999999,10.021141048799999,0.006544984694978736,0.6850417314077744,0.14671674024577333,-0.06089311844354227,0.0029343348049154666,-0.2946338692793887
1.4165509792,-0.9092725879999999,10.001998467999998,-0.02999784651865254,0.6986771161889801,0.011453723216212788,-0.09019450667739222,0.00022907446432425576,-0.16115464140526833
1.1581261384,-0.8805587167999999,10.04985492,0.049632800603588746,0.5252350217720435,-0.07908523173099306,-0.08985366612848782,-0.0015817046346198614,-0.13000298174372352
1.387837108,-0.5551348432,10.155139114399999,0.038724492778624185,0.3272492347489368,0.015817046346198613,-0.05616557440600099,0.0003163409269239723,-0.15465248600018688
0.7369893607999999,-0.7752745223999999,10.3082797608,0.06654067773228381,0.29343348049154666,0.0136353847812057,-0.0802698249755546,0.000272707695624114,-0.08025419431848198
0.5647061335999999,-0.8231309743999999,10.0402836296,0.10471975511965978,0.4526947747360292,0.003817907738737596,-0.08486296767742045,7.635815477475192e-05,-0.06211575457456234
-0.12442677519999999,-0.5647061335999999,10.4997055688,0.26561729553788704,0.2596177262341565,-0.011453723216212788,-0.05648300009278898,-0.00022907446432425576,0.018765542494670353
0.057427742399999995,-0.37328032559999996,10.336993631999999,-0.05999569303730508,-0.06872233929727672,0.017998707911191524,-0.04270927031310635,0.0003599741582238305,-0.007537901195358498
0.6987041991999999,-1.0432706535999998,9.6574320136,-0.11999138607461016,-0.1227184630308513,0.04581489286485115,-0.1257177634481208,0.000916297857297023,-0.08463623962258601
0.18185451759999996,-0.6317051664,10.068997500799998,0.022907446432425576,-0.022907446432425576,0.008726646259971648,-0.07224692817102117,0.00017453292519943296,-0.020204361114890115
0.22013967919999997,-0.6125625856,10.0115697584,0.014180800172453928,-0.03763366199612773,0.015271630954950384,-0.07076370438368956,0.0003054326190990077,-0.024867983530848417
0.10528419439999999,-0.4019941968,10.289137179999999,0.038179077387375956,-0.012544553998709244,0.05672320068981571,-0.044993769711732516,0.0011344640137963143,-0.010967990642814372
0.2009970984,-0.6317051664,10.241280727999998,0.031088677301148997,-0.02181661564992912,0.017998707911191524,-0.07102081157032865,0.0003599741582238305,-0.021835061513113867
0.21056838879999998,-0.6125625856,10.164710404799997,0.02454369260617026,-0.022362031041177347,0.011453723216212788,-0.06941193919594886,0.00022907446432425576,-0.023210943278295173
0.2009970984,-0.5934200047999999,10.1359965336,0.031634092692397225,-0.02127120025868089,0.01090830782496456,-0.06742896423208299,0.0002181661564992912,-0.02206170392805621
0.19142580799999998,-0.6029912951999999,10.1838529856,0.025634523388666716,-0.022362031041177347,0.011999138607461015,-0.06820943562287722,0.00023998277214922032,-0.020997148035967857
0.3637090351999999,-0.8709874263999998,9.8201439504,-0.04854196982109229,-0.05345070834232634,0.020180369476184436,-0.10241816302294746,0.00040360738952368875,-0.043207620670166876
0.24885355039999998,-0.6891329088,10.1838529856,0.037088246604879506,-0.0136353847812057,0.019089538693687978,-0.07769237818142431,0.0003817907738737596,-0.02720534149918311
0.22971096959999998,-0.6604190376,10.1264252432,0.02890701573615608,-0.017998707911191524,0.015817046346198613,-0.07498071465826835,0.0003163409269239723,-0.02536819278454438
0.23928225999999997,-0.6125625856,10.1742816952,0.02672535417116317,-0.02672535417116317,0.019089538693687978,-0.06943273087806986,0.0003817907738737596,-0.026372567278322698
0.22971096959999998,-0.6508477471999999,10.145567823999999,0.020725784867432664,-0.02890701573615608,0.015271630954950384,-0.07397755016275159,0.0003054326190990077,-0.025481405722724483
0.21056838879999998,-0.6317051664,10.193424275999998,0.032179508083645454,-0.026179938779914945,0.013089969389957472,-0.07143691243163998,0.00026179938779914946,-0.022992105731015185
0.2009970984,-0.6221338759999999,10.1742816952,0.037088246604879506,-0.014726215563702155,0.011453723216212788,-0.07027159481927833,0.00022907446432425576,-0.02186596993339088
0.21056838879999998,-0.6317051664,10.1742816952,0.02999784651865254,-0.02672535417116317,0.017453292519943295,-0.07158070189499877,0.00034906585039886593,-0.02307912877771313
0.21056838879999998,-0.6221338759999999,10.1742816952,0.031088677301148997,-0.019634954084936207,0.015817046346198613,-0.07036780609429451,0.0003163409269239723,-0.02305911484667997
0.21056838879999998,-0.6317051664,10.1742816952,0.022362031041177347,-0.02672535417116317,0.0136353847812057,-0.07158070189499877,0.000272707695624114,-0.023228790761071646
0.2009970984,-0.6125625856,10.155139114399999,0.017998707911191524,-0.0272707695624114,0.011453723216212788,-0.06957300149618477,0.00022907446432425576,-0.022283834561562167
0.21056838879999998,-0.6317051664,10.116853952799998,0.02127120025868089,-0.030543261909900768,0.019634954084936207,-0.07205784128866821,0.00039269908169872416,-0.023383957239124214
0.2009970984,-0.6317051664,10.155139114399999,0.019634954084936207,-0.027816184953659628,0.019634954084936207,-0.07173568135765772,0.00039269908169872416,-0.022249160629833613
0.2009970984,-0.6317051664,10.1838529856,0.0136353847812057,-0.02399827721492203,0.017998707911191524,-0.07146063921887795,0.0003599741582238305,-0.022303195923260088
0.2009970984,-0.6125625856,10.222138147199999,0.02399827721492203,-0.030543261909900768,0.015271630954950384,-0.06918572632827726,0.0003054326190990077,-0.022018446422794605
0.22971096959999998,-0.6125625856,10.116853952799998,0.022362031041177347,-0.02672535417116317,0.011453723216212788,-0.06982293806291166,0.00022907446432425576,-0.025528591889205657
0.21056838879999998,-0.6317051664,10.2029955664,0.033270338866141905,-0.022907446432425576,0.012544553998709244,-0.07130640849267635,0.0002508910799741849,-0.02294865610715464
0.21056838879999998,-0.6221338759999999,10.1742816952,0.027816184953659628,-0.023452861823673805,0.016907877128695067,-0.07044263708597377,0.00033815754257390134,-0.023123255696690763
0.21056838879999998,-0.6221338759999999,10.1742816952,0.0136353847812057,-0.020180369476184436,0.011999138607461015,-0.07037849623596298,0.00023998277214922032,-0.023401199380070858
0.21056838879999998,-0.6029912951999999,10.1742816952,0.016362461737446838,-0.02454369260617026,0.015271630954950384,-0.06831580202083434,0.0003054326190990077,-0.02335041947854973
0.2009970984,-0.6221338759999999,10.1359965336,0.017998707911191524,-0.027816184953659628,0.017998707911191524,-0.0707918337426756,0.0003599741582238305,-0.022325119782705127
0.21056838879999998,-0.6412764567999999,10.1838529856,0.028361600344907856,-0.02890701573615608,0.017453292519943295,-0.07262964813707323,0.00034906585039886593,-0.023087664211144145
0.22013967919999997,-0.6699903279999999,10.0881400816,0.030543261909900768,-0.0272707695624114,0.02181661564992912,-0.07652736004982832,0.0004363323129985824,-0.024348192774741536
0.2009970984,-0.6029912951999999,10.145567823999999,0.050178215994836975,-0.015271630954950384,0.010362892433716332,-0.06832560464327088,0.00020725784867432664,-0.021675664051325177
0.2009970984,-0.6125625856,10.164710404799997,0.020180369476184436,-0.022907446432425576,0.01090830782496456,-0.06942262933761732,0.0002181661564992912,-0.022219841603376717
0.2009970984,-0.6221338759999999,10.155139114399999,0.023452861823673805,-0.02399827721492203,0.019089538693687978,-0.07058491740250736,0.0003817907738737596,-0.022175641292714408
0.21056838879999998,-0.6125625856,10.116853952799998,0.02672535417116317,-0.02127120025868089,0.011999138607461015,-0.06971603664622701,0.00023998277214922032,-0.02327981415661176
0.19142580799999998,-0.5934200047999999,10.145567823999999,0.027816184953659628,-0.026179938779914945,0.014180800172453928,-0.06746210042211531,0.0002836160034490786,-0.02103640985493595
0.22971096959999998,-0.6891329088,10.2029955664,0.03981532356112064,-0.03436116964863836,0.012544553998709244,-0.07795378112710469,0.0002508910799741849,-0.024955870043733546
0.24885355039999998,-0.6317051664,10.068997500799998,0.0136353847812057,-0.030543261909900768,0.016362461737446838,-0.07239659015437969,0.00032724923474893676,-0.027992551668426565
0.22971096959999998,-0.5934200047999999,10.1359965336,0.032724923474893676,-0.02890701573615608,0.011999138607461015,-0.0675786262154415,0.00023998277214922032,-0.025279534940737994
0.22013967919999997,-0.6125625856,10.164710404799997,0.02399827721492203,-0.025089107997418487,0.014180800172453928,-0.06946538990429119,0.0002836160034490786,-0.024298214397205916
0.18185451759999996,-0.6125625856,10.1838529856,0.020180369476184436,-0.027816184953659628,0.012544553998709244,-0.06938950294303933,0.0002508910799741849,-0.020028162567773056
0.22013967919999997,-0.6125625856,10.193424275999998,0.025634523388666716,-0.025089107997418487,0.02127120025868089,-0.06927156490932848,0.0004254240051736178,-0.02419664628990805
0.2009970984,-0.6125625856,10.241280727999998,0.02399827721492203,-0.020180369476184436,0.016907877128695067,-0.06885471859574788,0.00033815754257390134,-0.021976571971691714
